timestamp_s,ax,ay,az,gx,gy,gz
159.742,0.06,-0.014,-1.021,-1.145,2.779,0.718
159.757,0.054,-0.017,-1.028,-1.008,2.603,0.649
159.772,0.057,-0.025,-1.027,-0.878,2.481,0.504
159.787,0.061,-0.016,-1.026,-1.107,2.71,0.374
159.802,0.06,-0.01,-1.023,-0.931,2.718,0.443
159.818,0.062,-0.016,-1.023,-0.893,2.74,0.565
159.832,0.062,-0.017,-1.019,-1.015,2.702,0.588
159.847,0.057,-0.018,-1.024,-1.107,2.649,0.473
159.863,0.052,-0.014,-1.025,-1.115,2.832,0.504
159.878,0.051,-0.01,-1.027,-0.924,2.748,0.519
159.893,0.059,-0.015,-1.025,-0.878,2.977,0.695
159.908,0.062,-0.021,-1.029,-1.107,2.695,0.58
159.923,0.064,-0.014,-1.025,-1.038,2.893,0.573
159.939,0.06,-0.013,-1.022,-0.87,2.901,0.527
159.954,0.053,-0.015,-1.03,-0.931,3.015,0.511
159.968,0.057,-0.021,-1.02,-0.817,2.756,0.603
159.984,0.055,-0.015,-1.032,-0.924,2.969,0.519
159.999,0.053,-0.01,-1.021,-0.878,2.901,0.573
160.014,0.059,-0.013,-1.022,-0.84,2.58,0.397
160.029,0.062,-0.021,-1.021,-1.137,2.481,0.382
160.044,0.06,-0.012,-1.02,-1.008,2.595,0.565
160.059,0.061,-0.016,-1.03,-0.969,2.87,0.603
160.075,0.051,-0.013,-1.018,-0.916,2.71,0.458
160.090,0.05,-0.017,-1.022,-0.916,2.992,0.466
160.104,0.055,-0.018,-1.02,-0.893,2.702,0.573
160.120,0.059,-0.019,-1.024,-1.0,2.947,0.405
160.135,0.063,-0.01,-1.028,-1.015,2.626,0.626
160.150,0.057,-0.017,-1.024,-0.969,3.046,0.847
160.165,0.053,-0.013,-1.023,-1.099,2.45,0.466
160.180,0.055,-0.022,-1.03,-0.863,2.824,0.473
160.196,0.055,-0.019,-1.026,-0.908,2.702,0.313
160.211,0.06,-0.016,-1.029,-1.115,2.496,0.542
160.225,0.056,-0.015,-1.022,-0.985,2.817,0.565
160.241,0.061,-0.016,-1.025,-0.855,2.702,0.58
160.256,0.055,-0.012,-1.026,-0.847,2.542,0.511
160.271,0.05,-0.012,-1.027,-0.878,2.649,0.305
160.287,0.055,-0.017,-1.025,-0.756,2.702,0.42
160.301,0.056,-0.015,-1.024,-0.824,2.901,0.641
160.316,0.062,-0.014,-1.029,-1.031,2.802,0.573
160.332,0.061,-0.012,-1.024,-1.023,2.786,0.931
160.347,0.056,-0.015,-1.021,-0.939,2.595,0.511
160.361,0.058,-0.018,-1.019,-1.26,2.916,0.557
160.377,0.054,-0.016,-1.027,-1.061,2.656,0.527
160.392,0.051,-0.02,-1.027,-1.061,2.885,0.435
160.408,0.055,-0.013,-1.021,-1.0,2.672,0.435
160.423,0.058,-0.013,-1.022,-0.969,2.84,0.519
160.437,0.056,-0.015,-1.027,-1.107,2.687,0.817
160.453,0.06,-0.012,-1.029,-1.031,2.893,0.595
160.468,0.057,-0.016,-1.026,-0.725,2.893,0.573
160.483,0.054,-0.021,-1.033,-1.0,2.74,0.802
160.498,0.052,-0.015,-1.025,-0.847,2.725,0.718
160.513,0.067,-0.025,-1.031,-1.267,1.863,0.71
160.528,0.038,-0.001,-0.976,-0.466,3.664,0.244
160.544,0.067,-0.021,-1.024,-1.458,1.053,0.695
160.558,0.07,0.002,-1.067,-0.481,3.252,0.573
160.573,0.057,-0.017,-1.006,-0.985,2.901,0.656
160.589,0.064,-0.041,-1.034,-1.13,2.672,0.573
160.604,0.053,-0.028,-1.025,-0.863,2.962,0.481
160.619,0.052,-0.003,-1.026,-1.389,2.42,0.427
160.634,0.056,0.003,-1.02,-0.924,2.611,0.298
160.649,0.057,-0.005,-1.021,-1.145,2.481,0.435
160.665,0.061,-0.027,-1.033,-0.824,2.656,0.313
160.680,0.054,-0.026,-1.02,-1.069,2.756,0.634
160.694,0.054,-0.018,-1.02,-1.183,2.557,0.557
160.710,0.055,-0.008,-1.016,-0.947,2.71,0.679
160.725,0.058,-0.009,-1.028,-0.87,2.595,0.58
160.740,0.059,-0.01,-1.021,-0.962,2.763,0.565
160.755,0.057,-0.015,-1.023,-0.931,2.748,0.641
160.770,0.052,-0.018,-1.024,-1.153,2.679,0.611
160.785,0.058,-0.022,-1.023,-0.832,2.55,0.42
160.801,0.061,-0.012,-1.027,-1.115,2.756,0.496
160.816,0.056,-0.011,-1.02,-1.092,2.893,0.55
160.830,0.054,-0.009,-1.024,-0.969,2.595,0.45
160.846,0.056,-0.017,-1.027,-1.122,2.763,0.435
160.861,0.057,-0.019,-1.014,-0.893,2.763,0.435
160.877,0.055,-0.021,-1.018,-1.038,2.771,0.618
160.891,0.057,-0.017,-1.024,-1.099,2.817,0.534
160.906,0.055,-0.014,-1.026,-1.153,2.725,0.542
160.922,0.053,-0.016,-1.026,-1.191,2.878,0.679
160.937,0.054,-0.014,-1.021,-0.779,2.985,0.534
160.952,0.057,-0.025,-1.019,-1.115,2.786,0.282
160.967,0.061,-0.019,-1.017,-1.046,2.832,0.649
160.982,0.059,-0.013,-1.021,-1.015,2.748,0.359
160.997,0.056,-0.006,-1.021,-1.13,2.863,0.382
161.013,0.057,-0.011,-1.026,-1.023,2.595,0.206
161.027,0.054,-0.019,-1.026,-0.969,2.687,0.542
161.042,0.053,-0.019,-1.021,-0.908,2.817,0.595
161.058,0.056,-0.017,-1.021,-1.115,2.71,0.664
161.073,0.058,-0.012,-1.028,-0.885,2.885,0.687
161.088,0.057,-0.013,-1.02,-0.931,2.618,0.542
161.103,0.061,-0.02,-1.025,-0.947,2.847,0.573
161.118,0.058,-0.017,-1.028,-0.832,2.718,0.74
161.134,0.054,-0.015,-1.027,-1.069,2.893,0.565
161.149,0.056,-0.018,-1.024,-0.962,2.519,0.481
161.163,0.06,-0.015,-1.023,-0.931,2.832,0.756
161.179,0.064,-0.017,-1.023,-1.0,2.702,0.42
161.194,0.062,-0.016,-1.025,-1.076,2.511,0.466
161.209,0.059,-0.011,-1.029,-1.023,2.756,0.656
161.224,0.053,-0.008,-1.023,-1.008,2.565,0.489
161.239,0.055,-0.026,-1.024,-0.84,2.847,0.756
161.254,0.054,-0.015,-1.029,-1.214,2.992,0.481
161.270,0.057,-0.007,-1.026,-1.282,2.695,0.504
161.285,0.059,-0.009,-1.018,-0.809,2.992,0.527
161.299,0.056,-0.017,-1.028,-1.061,2.84,0.267
161.315,0.058,-0.017,-1.026,-0.969,2.802,0.626
161.330,0.054,-0.015,-1.021,-1.0,2.695,0.58
161.346,0.053,-0.012,-1.026,-0.969,3.16,0.504
161.360,0.056,-0.019,-1.023,-0.969,2.954,0.725
161.375,0.051,-0.016,-1.029,-0.962,2.947,0.481
161.391,0.057,-0.017,-1.021,-0.824,2.603,0.718
161.406,0.061,-0.018,-1.025,-0.962,2.588,0.298
161.420,0.059,-0.014,-1.023,-0.634,2.595,0.298
161.436,0.054,-0.013,-1.015,-0.84,2.939,0.336
161.451,0.055,-0.012,-1.019,-0.672,2.901,0.809
161.466,0.056,-0.015,-1.024,-0.672,3.069,0.504
161.482,0.059,-0.018,-1.021,-0.695,2.992,0.802
161.496,0.06,-0.014,-1.026,-0.87,2.641,0.527
161.511,0.057,-0.015,-1.024,-0.916,2.84,0.427
161.527,0.06,-0.014,-1.03,-0.679,2.947,0.527
161.542,0.062,-0.016,-1.023,-0.756,2.534,0.374
161.556,0.06,-0.013,-1.025,-0.969,2.924,0.496
161.572,0.054,-0.013,-1.027,-0.962,2.679,0.481
161.587,0.057,-0.012,-1.022,-0.969,2.901,0.473
161.603,0.061,-0.015,-1.012,-0.977,2.687,0.473
161.617,0.06,-0.019,-1.024,-0.962,2.847,0.382
161.632,0.057,-0.022,-1.023,-1.023,2.832,0.557
161.648,0.053,-0.013,-1.021,-1.053,2.802,0.427
161.663,0.053,-0.009,-1.025,-0.954,2.924,0.298
161.678,0.058,-0.011,-1.022,-1.023,2.939,0.473
161.693,0.059,-0.013,-1.022,-1.015,3.076,0.603
161.708,0.059,-0.021,-1.033,-0.855,3.015,0.58
161.723,0.055,-0.014,-1.02,-1.107,2.809,0.55
161.739,0.056,-0.014,-1.022,-0.931,2.718,0.519
161.753,0.061,-0.013,-1.023,-0.71,2.771,0.374
161.768,0.055,-0.016,-1.026,-0.779,2.878,0.511
161.784,0.057,-0.017,-1.035,-1.061,2.664,0.611
161.799,0.055,-0.017,-1.019,-0.977,2.595,0.534
161.813,0.052,-0.014,-1.025,-1.076,2.733,0.687
161.829,0.058,-0.013,-1.026,-0.916,2.55,0.626
161.844,0.059,-0.018,-1.025,-1.099,2.771,0.824
161.860,0.058,-0.014,-1.019,-1.145,2.87,0.435
161.875,0.059,-0.014,-1.022,-1.0,2.733,0.489
161.889,0.062,-0.013,-1.023,-1.206,2.748,0.557
161.905,0.058,-0.014,-1.019,-0.84,2.565,0.588
161.920,0.054,-0.017,-1.035,-0.962,2.885,0.588
161.935,0.052,-0.014,-1.02,-0.893,2.763,0.511
161.950,0.055,-0.015,-1.023,-0.969,2.901,0.481
161.965,0.062,-0.019,-1.027,-0.901,2.557,0.389
161.980,0.058,-0.018,-1.026,-1.0,2.863,0.473
161.996,0.061,-0.018,-1.022,-0.779,2.618,0.626
162.010,0.057,-0.016,-1.026,-0.931,2.847,0.519
162.025,0.054,-0.017,-1.02,-0.985,2.397,0.336
162.041,0.052,-0.013,-1.016,-1.069,2.84,0.573
162.056,0.058,-0.015,-1.028,-0.992,2.878,0.84
162.072,0.059,-0.019,-1.028,-1.076,2.794,0.504
162.086,0.06,-0.015,-1.021,-1.046,2.84,0.443
162.101,0.061,-0.018,-1.02,-0.947,2.763,0.595
162.117,0.057,-0.016,-1.018,-1.015,2.847,0.557
162.132,0.054,-0.016,-1.024,-0.924,2.863,0.412
162.146,0.056,-0.017,-1.026,-0.924,2.557,0.557
162.162,0.057,-0.015,-1.026,-0.924,2.634,0.603
162.177,0.056,-0.011,-1.021,-1.061,2.855,0.756
162.192,0.057,-0.017,-1.025,-0.87,2.809,0.695
162.208,0.058,-0.016,-1.031,-0.901,2.824,0.351
162.222,0.054,-0.014,-1.021,-1.107,2.878,0.55
162.237,0.052,-0.011,-1.03,-0.87,2.679,0.626
162.253,0.055,-0.017,-1.024,-1.0,2.725,0.427
162.268,0.057,-0.016,-1.024,-1.053,2.573,0.405
162.282,0.058,-0.013,-1.029,-0.985,2.809,0.359
162.298,0.057,-0.016,-1.024,-1.076,2.863,0.55
162.313,0.057,-0.012,-1.028,-0.901,2.878,0.618
162.329,0.058,-0.014,-1.024,-0.992,2.626,0.489
162.343,0.054,-0.017,-1.025,-1.031,2.71,0.366
162.358,0.056,-0.013,-1.017,-1.023,2.771,0.473
162.374,0.057,-0.015,-1.022,-0.908,2.908,0.557
162.389,0.059,-0.012,-1.022,-0.824,2.634,0.58
162.404,0.053,-0.012,-1.027,-1.168,2.588,0.336
162.419,0.059,-0.019,-1.024,-0.794,2.802,0.611
162.434,0.056,-0.013,-1.026,-0.947,2.794,0.588
162.449,0.057,-0.019,-1.014,-1.099,2.84,0.42
162.465,0.056,-0.014,-1.027,-1.092,2.908,0.519
162.479,0.11,0.002,-1.026,-0.29,4.733,3.664
162.494,-0.132,-0.815,-0.509,74.115,105.229,-1.069
162.510,0.173,-0.031,-0.126,-11.313,-66.069,5.511
162.525,-0.025,-0.082,-1.178,5.725,16.053,0.786
162.541,-0.035,0.015,-1.046,-2.137,-3.282,0.878
162.556,0.092,0.032,-1.029,-2.519,-1.382,0.038
162.570,0.056,-0.002,-1.034,-0.214,6.588,0.351
162.586,0.054,-0.015,-1.032,-1.13,2.656,0.779
162.601,0.053,-0.031,-1.02,-0.794,2.71,0.748
162.616,0.048,-0.015,-1.025,-1.191,2.679,0.573
162.631,0.055,-0.031,-1.025,-0.649,2.809,0.458
162.646,0.06,-0.0,-1.014,-1.16,2.634,0.382
162.661,0.066,0.009,-1.023,-0.802,2.542,0.656
162.677,0.063,-0.01,-1.021,-0.84,2.802,0.573
162.692,0.057,-0.029,-1.034,-0.901,2.763,0.534
162.706,0.05,-0.031,-1.022,-0.885,2.87,0.473
162.722,0.053,-0.016,-1.018,-1.206,2.794,0.695
162.737,0.062,-0.005,-1.024,-0.855,3.0,0.481
162.752,0.061,-0.006,-1.023,-1.061,2.634,0.519
162.767,0.056,-0.015,-1.021,-0.817,2.802,0.443
162.782,0.052,-0.014,-1.024,-0.962,2.885,0.534
162.798,0.054,-0.021,-1.025,-1.061,2.794,0.542
162.813,0.054,-0.025,-1.026,-0.84,2.725,0.443
162.827,0.058,-0.018,-1.017,-0.954,2.771,0.618
162.843,0.057,-0.006,-1.031,-1.046,2.695,0.305
162.858,0.056,-0.007,-1.021,-0.786,2.702,0.771
162.873,0.06,-0.022,-1.023,-0.992,2.885,0.489
162.889,0.06,-0.031,-1.021,-0.817,2.878,0.519
162.903,0.056,-0.018,-1.026,-1.0,2.634,0.817
162.918,0.048,-0.01,-1.024,-1.031,2.664,0.458
162.934,0.052,-0.013,-1.027,-1.046,2.779,0.382
162.949,0.058,-0.012,-1.018,-0.985,3.038,0.733
162.963,0.06,-0.016,-1.029,-0.939,2.962,0.412
162.979,0.063,-0.019,-1.022,-1.069,2.55,0.618
162.994,0.052,-0.018,-1.024,-1.038,2.74,0.504
163.010,0.05,-0.014,-1.029,-0.908,2.924,0.786
163.024,0.056,-0.014,-1.024,-1.023,2.779,0.71
163.039,0.056,-0.013,-1.03,-0.939,2.847,0.481
163.055,0.065,-0.025,-1.026,-1.069,2.679,0.374
163.070,0.057,-0.018,-1.02,-0.939,2.954,0.489
163.085,0.056,-0.016,-1.034,-0.947,2.725,0.481
163.100,0.052,-0.015,-1.019,-1.023,2.87,0.45
163.115,0.052,-0.02,-1.029,-0.763,2.947,0.603
163.130,0.054,-0.007,-1.028,-1.031,2.374,0.397
163.146,0.06,-0.01,-1.02,-1.008,2.939,0.527
163.160,0.064,-0.025,-1.02,-0.901,2.687,0.511
163.175,0.059,-0.02,-1.025,-1.153,2.42,0.466
163.191,0.053,-0.012,-1.02,-0.939,2.733,0.573
163.206,0.047,-0.006,-1.026,-0.924,2.603,0.359
163.220,0.055,-0.011,-1.024,-1.0,2.702,0.718
163.236,0.057,-0.019,-1.028,-0.84,2.809,0.779
163.251,0.061,-0.016,-1.021,-0.885,2.695,0.664
163.267,0.06,-0.016,-1.03,-0.885,2.588,0.504
163.282,0.053,-0.015,-1.021,-1.099,2.763,0.55
163.296,0.054,-0.016,-1.016,-0.962,2.794,0.534
163.312,0.06,-0.013,-1.016,-0.855,2.786,0.328
163.327,0.056,-0.014,-1.026,-0.962,2.679,0.519
163.342,0.054,-0.016,-1.026,-1.13,2.542,0.496
163.357,0.058,-0.015,-1.023,-1.221,2.672,0.405
163.372,0.061,-0.013,-1.023,-0.847,2.802,0.588
163.387,0.058,-0.017,-1.024,-0.939,2.74,0.588
163.403,0.049,-0.016,-1.021,-1.031,2.656,0.359
163.417,0.052,-0.015,-1.025,-1.061,2.771,0.305
163.432,0.058,-0.014,-1.025,-1.008,2.756,0.382
163.448,0.06,-0.018,-1.025,-1.122,2.496,0.595
163.463,0.061,-0.015,-1.023,-0.992,2.55,0.42
163.478,0.056,-0.014,-1.027,-0.855,2.748,0.656
163.493,0.052,-0.013,-1.024,-0.718,2.847,0.435
163.508,0.052,-0.018,-1.022,-0.824,2.611,0.481
163.524,0.055,-0.018,-1.027,-0.992,2.771,0.466
163.539,0.057,-0.016,-1.026,-0.802,2.977,0.656
163.553,0.061,-0.01,-1.027,-1.008,2.733,0.519
163.569,0.059,-0.014,-1.023,-0.885,2.542,0.275
163.584,0.061,-0.015,-1.033,-1.038,2.55,0.504
163.599,0.057,-0.016,-1.026,-1.107,2.908,0.748
163.615,0.053,-0.016,-1.028,-0.985,2.55,0.565
163.629,0.054,-0.019,-1.028,-0.855,2.763,0.435
163.644,0.058,-0.015,-1.027,-0.969,2.695,0.71
163.660,0.057,-0.012,-1.026,-0.924,2.817,0.534
163.675,0.06,-0.012,-1.023,-0.893,2.542,0.336
163.689,0.056,-0.016,-1.024,-0.916,2.618,0.527
163.705,0.054,-0.017,-1.026,-1.069,2.725,0.382
163.720,0.056,-0.02,-1.02,-0.901,2.748,0.389
163.736,0.06,-0.017,-1.026,-0.969,2.916,0.496
163.750,0.055,-0.011,-1.021,-0.908,2.908,0.771
163.765,0.056,-0.02,-1.027,-1.053,2.809,0.313
163.781,0.059,-0.016,-1.018,-0.992,2.992,0.603
163.796,0.058,-0.017,-1.018,-1.0,2.779,0.183
163.811,0.057,-0.017,-1.024,-1.046,2.802,0.359
163.826,0.058,-0.011,-1.023,-1.084,2.855,0.389
163.841,0.057,-0.016,-1.025,-1.046,2.794,0.389
163.856,0.06,-0.014,-1.027,-0.947,2.74,0.733
163.872,0.061,-0.013,-1.027,-1.076,2.763,0.573
163.886,0.056,-0.02,-1.023,-1.076,2.931,0.458
163.901,0.058,-0.015,-1.033,-0.863,2.786,0.527
163.917,0.053,-0.009,-1.029,-0.969,2.878,0.527
163.932,0.053,-0.015,-1.022,-1.038,2.817,0.527
163.947,0.055,-0.015,-1.031,-1.023,2.611,0.588
163.962,0.058,-0.018,-1.02,-0.954,2.802,0.58
163.977,0.059,-0.015,-1.029,-0.947,2.809,0.58
163.993,0.054,-0.017,-1.023,-1.168,2.679,0.267
164.008,0.057,-0.014,-1.017,-1.023,2.672,0.405
164.022,0.057,-0.012,-1.021,-0.779,2.832,0.42
164.038,0.055,-0.015,-1.029,-1.038,2.786,0.321
164.053,0.057,-0.019,-1.024,-0.939,2.763,0.397
164.068,0.059,-0.015,-1.021,-0.977,2.924,0.511
164.083,0.061,-0.016,-1.023,-0.847,2.71,0.313
164.098,0.054,-0.014,-1.02,-0.977,2.786,0.366
164.113,0.057,-0.016,-1.024,-1.107,2.672,0.458
164.129,0.058,-0.02,-1.025,-0.908,2.847,0.527
164.144,0.059,-0.014,-1.026,-0.962,2.573,0.588
164.158,0.059,-0.015,-1.026,-1.023,2.74,0.687
164.174,0.058,-0.017,-1.028,-0.824,3.076,0.603
164.189,0.057,-0.015,-1.026,-0.794,3.038,0.656
164.205,0.053,-0.013,-1.023,-1.053,2.656,0.534
164.219,0.058,-0.013,-1.027,-0.969,2.496,0.55
164.234,0.06,-0.014,-1.021,-1.099,2.504,0.443
164.250,0.058,-0.018,-1.032,-0.947,2.809,0.496
164.265,0.057,-0.014,-1.025,-1.16,2.641,0.527
164.279,0.056,-0.009,-1.03,-1.069,2.748,0.611
164.295,0.055,-0.011,-1.026,-0.786,2.672,0.565
164.310,0.056,-0.014,-1.023,-1.038,2.573,0.618
164.325,0.057,-0.017,-1.022,-0.786,2.794,0.374
164.341,0.057,-0.015,-1.031,-0.977,2.87,0.504
164.355,0.056,-0.016,-1.024,-0.832,2.855,0.412
164.370,0.059,-0.014,-1.032,-0.931,2.885,0.603
164.386,0.057,-0.012,-1.017,-0.824,2.74,0.504
164.401,0.055,-0.014,-1.026,-0.939,2.84,0.58
164.415,0.056,-0.015,-1.028,-0.947,2.74,0.679
164.431,0.061,-0.018,-1.029,-0.832,2.763,0.504
164.446,0.06,-0.013,-1.027,-0.962,2.786,0.382
164.462,0.056,-0.014,-1.031,-1.267,2.71,0.595
164.476,0.06,-0.01,-1.026,-0.779,2.634,0.443
164.491,0.054,-0.02,-1.024,-0.977,2.802,0.557
164.507,0.057,-0.016,-1.024,-0.924,2.794,0.473
164.522,0.06,-0.015,-1.024,-1.015,2.992,0.542
164.536,0.056,-0.016,-1.032,-1.023,2.511,0.473
164.552,0.052,-0.013,-1.029,-1.023,2.71,0.427
164.567,0.056,-0.013,-1.023,-0.84,2.58,0.405
164.582,0.058,-0.018,-1.019,-0.84,2.786,0.74
164.598,0.059,-0.017,-1.026,-1.076,2.71,0.412
164.612,0.056,-0.019,-1.022,-0.916,2.588,0.435
164.627,0.056,-0.014,-1.03,-1.092,2.885,0.603
164.643,0.057,-0.011,-1.024,-0.916,2.695,0.504
164.658,0.06,-0.012,-1.017,-1.122,2.748,0.542
164.672,0.058,-0.011,-1.026,-1.053,2.901,0.397
164.688,0.062,-0.016,-1.02,-0.947,2.756,0.687
164.703,0.058,-0.017,-1.033,-0.969,2.947,0.611
164.719,0.054,-0.016,-1.024,-0.763,2.672,0.489
164.733,0.056,-0.016,-1.031,-0.977,2.649,0.473
164.748,0.058,-0.016,-1.026,-1.076,2.71,0.718
164.764,0.055,-0.015,-1.021,-0.985,2.802,0.55
164.779,0.057,-0.013,-1.031,-1.145,2.656,0.45
164.794,0.052,-0.014,-1.025,-0.939,2.71,0.611
164.809,0.057,-0.013,-1.023,-0.954,2.901,0.908
164.824,0.062,-0.016,-1.027,-0.832,2.794,0.656
164.839,0.054,-0.015,-1.027,-0.855,2.695,0.649
164.855,0.055,-0.011,-1.031,-1.015,2.725,0.389
164.869,0.058,-0.013,-1.025,-0.931,2.878,0.573
164.884,0.054,-0.013,-1.026,-1.023,2.832,0.573
164.900,0.06,-0.016,-1.014,-1.176,2.725,0.466
164.915,0.053,-0.018,-1.03,-0.893,2.74,0.443
164.931,0.059,-0.014,-1.024,-0.924,2.71,0.58
164.945,0.06,-0.014,-1.023,-0.885,2.74,0.679
164.960,0.055,-0.013,-1.027,-0.908,2.634,0.397
164.976,0.058,-0.017,-1.02,-0.977,2.679,0.45
164.991,0.056,-0.016,-1.027,-1.023,2.809,0.45
165.005,0.055,-0.021,-1.024,-0.763,2.786,0.573
165.021,0.058,-0.013,-1.025,-1.092,2.817,0.634
165.036,0.058,-0.013,-1.022,-0.924,2.557,0.573
165.051,0.059,-0.011,-1.023,-0.748,2.573,0.573
165.066,0.059,-0.019,-1.023,-0.977,2.733,0.481
165.081,0.059,-0.018,-1.017,-1.046,2.664,0.305
165.096,0.058,-0.011,-1.02,-1.023,2.557,0.405
165.112,0.056,-0.014,-1.024,-0.985,2.71,0.458
165.127,0.057,-0.015,-1.021,-1.023,2.832,0.366
165.141,0.053,-0.018,-1.026,-0.985,2.672,0.29
165.157,0.054,-0.019,-1.029,-0.992,2.672,0.473
165.172,0.057,-0.016,-1.023,-0.969,2.924,0.305
165.188,0.057,-0.014,-1.029,-1.244,2.565,0.656
165.202,0.056,-0.012,-1.02,-1.099,2.649,0.481
165.217,0.057,-0.015,-1.024,-0.939,2.985,0.618
165.233,0.057,-0.012,-1.03,-0.832,2.756,0.336
165.248,0.057,-0.017,-1.024,-0.977,2.725,0.29
165.262,0.059,-0.02,-1.022,-1.122,2.725,0.771
165.278,0.055,-0.016,-1.02,-0.901,2.763,0.42
165.293,0.055,-0.013,-1.029,-1.061,2.908,0.634
165.308,0.057,-0.016,-1.025,-0.939,2.847,0.603
165.324,0.058,-0.012,-1.029,-1.153,3.008,0.298
165.338,0.054,-0.02,-1.028,-0.939,2.954,0.634
165.353,0.056,-0.015,-1.025,-0.931,2.71,0.519
165.369,0.057,-0.014,-1.03,-0.756,2.74,0.229
165.384,0.059,-0.017,-1.026,-0.954,2.809,0.389
165.398,0.058,-0.014,-1.024,-1.298,2.878,0.435
165.414,0.055,-0.017,-1.026,-1.038,2.687,0.489
165.429,0.056,-0.016,-1.027,-0.954,2.809,0.344
165.445,0.054,-0.015,-1.025,-0.977,2.947,0.588
165.459,0.055,-0.016,-1.023,-0.931,2.809,0.618
165.474,0.057,-0.017,-1.028,-0.809,2.634,0.504
165.490,0.061,-0.018,-1.02,-0.992,2.679,0.473
165.505,0.062,-0.014,-1.024,-0.924,2.733,0.672
165.520,0.058,-0.016,-1.026,-0.901,2.603,0.427
165.535,0.057,-0.013,-1.019,-0.74,2.496,0.534
165.550,0.06,-0.017,-1.031,-0.878,2.702,0.496
165.565,0.054,-0.015,-1.02,-1.008,2.817,0.427
165.581,0.056,-0.018,-1.019,-0.916,2.626,0.634
165.595,0.057,-0.021,-1.027,-0.794,2.786,0.611
165.610,0.061,-0.017,-1.02,-0.84,2.771,0.489
165.626,0.054,-0.01,-1.024,-0.954,2.672,0.481
165.641,0.055,-0.014,-1.031,-0.809,2.74,0.496
165.656,0.055,-0.01,-1.03,-0.824,2.84,0.466
165.671,0.054,-0.013,-1.025,-0.992,2.832,0.618
165.686,0.057,-0.019,-1.027,-1.107,2.809,0.573
165.702,0.055,-0.013,-1.027,-1.038,2.901,0.664
165.717,0.059,-0.014,-1.021,-1.069,2.695,0.42
165.731,0.058,-0.018,-1.027,-1.145,2.786,0.282
165.747,0.057,-0.014,-1.023,-1.038,2.702,0.756
165.762,0.055,-0.018,-1.031,-0.863,2.519,0.55
165.777,0.054,-0.014,-1.028,-1.221,2.58,0.374
165.792,0.055,-0.015,-1.024,-0.985,2.55,0.481
165.807,0.057,-0.019,-1.023,-1.191,2.771,0.809
165.822,0.057,-0.017,-1.024,-0.855,2.779,0.489
165.838,0.056,-0.016,-1.018,-0.947,2.71,0.603
165.852,0.056,-0.015,-1.029,-1.092,2.595,0.58
165.867,0.055,-0.01,-1.023,-1.008,2.824,0.595
165.883,0.052,-0.019,-1.018,-0.977,2.786,0.214
165.898,0.059,-0.014,-1.024,-0.977,2.908,0.534
165.914,0.057,-0.013,-1.02,-0.87,2.794,0.542
165.928,0.057,-0.012,-1.025,-1.0,2.71,0.466
165.943,0.057,-0.014,-1.021,-0.985,2.748,0.282
165.959,0.059,-0.017,-1.028,-1.023,2.779,0.527
165.974,0.058,-0.017,-1.032,-0.725,2.855,0.58
165.988,0.054,-0.015,-1.03,-1.153,2.824,0.344
166.004,0.057,-0.016,-1.016,-1.107,2.847,0.458
166.019,0.057,-0.018,-1.021,-1.198,2.855,0.458
166.034,0.057,-0.015,-1.029,-0.809,2.908,0.687
166.049,0.062,-0.012,-1.022,-0.939,2.611,0.443
166.064,0.056,-0.012,-1.023,-1.092,2.702,0.519
166.079,0.055,-0.013,-1.026,-0.985,2.908,0.618
166.095,0.06,-0.017,-1.028,-1.053,2.634,0.168
166.110,0.059,-0.016,-1.023,-0.679,2.809,0.389
166.125,0.06,-0.01,-1.024,-0.824,2.847,0.481
166.140,0.056,-0.018,-1.032,-1.038,2.695,0.588
166.155,0.058,-0.02,-1.028,-0.931,2.672,0.412
166.171,0.057,-0.016,-1.019,-0.962,2.725,0.366
166.185,0.054,-0.016,-1.019,-1.015,2.672,0.595
166.200,0.059,-0.018,-1.027,-0.962,2.763,0.527
166.216,0.054,-0.015,-1.027,-0.847,2.931,0.481
166.231,0.055,-0.015,-1.022,-1.145,2.71,0.588
166.246,0.053,-0.019,-1.024,-1.0,2.641,0.412
166.261,0.053,-0.014,-1.022,-1.046,2.534,0.519
166.276,0.06,-0.017,-1.023,-0.924,2.458,0.733
166.291,0.057,-0.015,-1.029,-0.939,2.748,0.748
166.307,0.058,-0.015,-1.033,-0.931,2.771,0.527
166.321,0.056,-0.013,-1.029,-1.046,2.931,0.565
166.336,0.059,-0.013,-1.025,-0.84,2.794,0.718
166.352,0.057,-0.016,-1.031,-1.038,3.0,0.359
166.367,0.056,-0.015,-1.022,-0.931,2.573,0.626
166.382,0.056,-0.016,-1.019,-0.863,2.802,0.618
166.397,0.053,-0.014,-1.019,-0.992,2.656,0.58
166.412,0.06,-0.016,-1.028,-0.992,2.748,0.542
166.428,0.056,-0.014,-1.029,-1.084,2.733,0.626
166.443,0.057,-0.019,-1.028,-0.939,3.015,0.603
166.457,0.058,-0.012,-1.023,-0.893,2.71,0.763
166.473,0.056,-0.019,-1.03,-1.015,2.847,0.359
166.488,0.057,-0.015,-1.024,-1.069,2.679,0.366
166.503,0.057,-0.017,-1.027,-1.099,2.87,0.496
166.518,0.058,-0.011,-1.031,-1.061,2.511,0.26
166.533,0.054,-0.015,-1.027,-0.763,3.015,0.611
166.548,0.058,-0.01,-1.02,-0.992,2.916,0.328
166.564,0.056,-0.015,-1.024,-1.038,2.611,0.702
166.578,0.055,-0.013,-1.023,-0.863,2.87,0.71
166.594,0.057,-0.016,-1.026,-1.061,2.863,0.45
166.609,0.056,-0.016,-1.024,-0.977,2.443,0.542
166.624,0.057,-0.017,-1.026,-0.916,2.954,0.351
166.640,0.058,-0.018,-1.025,-0.924,2.649,0.71
166.654,0.055,-0.017,-1.022,-1.092,2.893,0.45
166.669,0.06,-0.013,-1.019,-1.115,2.809,0.214
166.685,0.057,-0.015,-1.027,-1.076,2.786,0.435
166.700,0.057,-0.015,-1.029,-0.763,2.626,0.58
166.714,0.061,-0.011,-1.024,-0.855,2.733,0.443
166.730,0.059,-0.014,-1.021,-1.008,2.733,0.374
166.745,0.059,-0.017,-1.02,-1.16,2.656,0.45
166.760,0.06,-0.015,-1.031,-0.962,2.809,0.412
166.775,0.059,-0.014,-1.021,-1.107,2.672,0.466
166.790,0.06,-0.012,-1.024,-0.901,2.611,0.458
166.805,0.053,-0.014,-1.025,-0.969,2.519,0.336
166.821,0.053,-0.019,-1.032,-0.847,2.611,0.519
166.836,0.058,-0.012,-1.021,-0.87,2.84,0.405
166.851,0.058,-0.012,-1.028,-0.947,2.847,0.443
166.866,0.061,-0.017,-1.026,-1.008,2.863,0.748
166.881,0.061,-0.018,-1.031,-0.947,2.878,0.489
166.897,0.056,-0.017,-1.027,-1.023,2.718,0.489
166.911,0.055,-0.018,-1.031,-0.878,2.672,0.321
166.926,0.059,-0.018,-1.023,-1.038,2.634,0.443
166.942,0.059,-0.016,-1.026,-1.015,2.664,0.656
166.957,0.057,-0.017,-1.018,-0.977,2.641,0.565
166.972,0.056,-0.012,-1.024,-1.107,2.664,0.489
166.987,0.058,-0.014,-1.02,-0.817,2.786,0.748
167.002,0.055,-0.015,-1.024,-0.809,2.824,0.58
167.017,0.061,-0.017,-1.023,-0.977,2.527,0.519
167.033,0.061,-0.015,-1.028,-0.924,2.603,0.672
167.047,0.058,-0.019,-1.022,-0.863,2.763,0.718
167.062,0.058,-0.017,-1.033,-0.794,2.832,0.458
167.078,0.056,-0.016,-1.03,-1.076,2.84,0.634
167.093,0.058,-0.018,-1.027,-1.107,2.725,0.29
167.108,0.057,-0.016,-1.016,-0.908,2.962,0.588
167.123,0.06,-0.014,-1.029,-1.008,2.847,0.466
167.138,0.059,-0.018,-1.024,-0.992,2.634,0.382
167.154,0.058,-0.011,-1.027,-0.939,2.924,0.557
167.169,0.056,-0.016,-1.026,-0.992,2.656,0.557
167.183,0.056,-0.015,-1.021,-0.824,2.763,0.588
167.199,0.06,-0.014,-1.024,-0.809,2.985,0.45
167.214,0.055,-0.016,-1.027,-1.153,2.71,0.389
167.229,0.054,-0.018,-1.021,-0.87,2.565,0.374
167.244,0.057,-0.02,-1.033,-1.076,2.87,0.473
167.259,0.059,-0.013,-1.024,-1.153,2.618,0.374
167.274,0.058,-0.013,-1.023,-0.71,2.901,0.473
167.290,0.057,-0.016,-1.027,-1.176,2.817,0.565
167.304,0.056,-0.015,-1.027,-0.916,2.557,0.58
167.320,0.06,-0.015,-1.03,-0.794,2.847,0.595
167.335,0.053,-0.015,-1.02,-1.16,2.794,0.382
167.350,0.059,-0.015,-1.019,-0.908,2.664,0.298
167.366,0.052,-0.015,-1.023,-1.145,2.649,0.611
167.380,0.058,-0.014,-1.025,-1.115,2.641,0.427
167.395,0.054,-0.014,-1.021,-1.092,2.565,0.763
167.411,0.055,-0.013,-1.013,-0.809,2.954,0.527
167.426,0.056,-0.014,-1.027,-1.206,2.855,0.511
167.440,0.054,-0.012,-1.023,-0.786,2.641,0.313
167.456,0.057,-0.015,-1.029,-0.87,2.763,0.466
167.471,0.059,-0.017,-1.021,-1.0,2.931,0.557
167.486,0.054,-0.011,-1.022,-0.939,2.809,0.366
167.502,0.058,-0.02,-1.03,-1.053,2.924,0.519
167.516,0.059,-0.017,-1.028,-1.359,3.008,0.389
167.531,0.058,-0.017,-1.023,-1.015,2.595,0.519
167.547,0.055,-0.015,-1.025,-0.954,2.695,0.718
167.562,0.057,-0.015,-1.029,-1.168,2.649,0.588
167.577,0.057,-0.019,-1.029,-0.832,2.901,0.321
167.592,0.054,-0.018,-1.02,-0.794,2.832,0.427
167.607,0.055,-0.014,-1.025,-0.824,2.786,0.397
167.623,0.056,-0.014,-1.031,-0.931,2.557,0.58
167.637,0.055,-0.017,-1.026,-1.015,2.908,0.542
167.652,0.059,-0.014,-1.029,-0.832,2.672,0.641
167.668,0.06,-0.015,-1.024,-0.947,2.748,0.466
167.683,0.056,-0.014,-1.025,-0.687,2.542,0.626
167.698,0.056,-0.015,-1.03,-0.794,2.901,0.611
167.713,0.059,-0.015,-1.026,-0.824,2.718,0.595
167.728,0.061,-0.017,-1.024,-1.145,2.779,0.565
167.743,0.061,-0.014,-1.026,-0.992,2.649,0.557
167.759,0.057,-0.021,-1.028,-1.107,2.649,0.336
167.773,0.057,-0.016,-1.025,-0.962,2.603,0.641
167.789,0.057,-0.014,-1.026,-0.809,2.74,0.45
167.804,0.059,-0.019,-1.024,-0.824,2.802,0.313
167.819,0.054,-0.013,-1.029,-0.962,2.786,0.405
167.834,0.054,-0.016,-1.025,-0.786,2.397,0.603
167.849,0.055,-0.019,-1.024,-0.901,2.84,0.656
167.864,0.057,-0.019,-1.025,-0.924,2.611,0.42
167.880,0.057,-0.015,-1.02,-0.985,2.802,0.511
167.895,0.055,-0.017,-1.024,-0.962,2.695,0.389
167.909,0.057,-0.018,-1.027,-1.137,3.0,0.588
167.925,0.058,-0.018,-1.026,-1.008,2.718,0.588
167.940,0.055,-0.018,-1.026,-0.87,2.893,0.519
167.955,0.06,-0.019,-1.027,-0.901,2.718,0.344
167.970,0.056,-0.018,-1.031,-1.107,2.687,0.481
167.985,0.055,-0.018,-1.021,-0.756,2.832,0.748
168.000,0.056,-0.015,-1.02,-1.061,2.771,0.374
168.016,0.053,-0.014,-1.027,-0.802,2.779,0.542
168.030,0.059,-0.018,-1.024,-1.015,2.794,0.473
168.046,0.057,-0.013,-1.029,-0.748,2.901,0.679
168.061,0.057,-0.017,-1.022,-0.855,2.779,0.58
168.076,0.057,-0.015,-1.024,-0.992,2.794,0.695
168.092,0.053,-0.015,-1.018,-1.099,2.573,0.565
168.106,0.058,-0.015,-1.021,-1.099,2.916,0.573
168.121,0.055,-0.018,-1.027,-0.87,2.573,0.481
168.137,0.055,-0.012,-1.028,-0.924,2.962,0.55
168.152,0.055,-0.018,-1.023,-1.107,2.664,0.443
168.166,0.057,-0.013,-1.021,-1.038,2.763,0.611
168.182,0.061,-0.015,-1.028,-0.885,2.786,0.878
168.197,0.059,-0.014,-1.023,-0.931,2.626,0.504
168.212,0.055,-0.014,-1.025,-1.107,2.863,0.542
168.228,0.053,-0.015,-1.016,-0.992,2.748,0.618
168.242,0.056,-0.019,-1.024,-0.878,2.771,0.557
168.258,0.056,-0.015,-1.028,-0.87,2.87,0.687
168.273,0.061,-0.017,-1.022,-0.786,2.832,0.183
168.288,0.061,-0.015,-1.022,-1.145,2.695,0.412
168.303,0.056,-0.017,-1.026,-0.985,2.74,0.725
168.318,0.056,-0.014,-1.016,-1.168,2.664,0.389
168.333,0.056,-0.017,-1.021,-0.885,2.786,0.473
168.349,0.052,-0.014,-1.025,-1.038,2.695,0.359
168.363,0.056,-0.018,-1.028,-0.718,2.954,0.695
168.378,0.059,-0.013,-1.022,-1.115,2.71,0.595
168.394,0.055,-0.018,-1.022,-0.725,2.679,0.656
168.409,0.058,-0.017,-1.026,-0.779,2.74,0.504
168.424,0.057,-0.018,-1.029,-1.084,2.733,0.496
168.439,0.052,-0.015,-1.027,-0.817,2.687,0.504
168.454,0.053,-0.014,-1.018,-1.0,2.603,0.458
168.469,0.059,-0.015,-1.03,-0.954,2.87,0.611
168.485,0.056,-0.014,-1.025,-0.992,2.733,0.412
168.499,0.058,-0.013,-1.025,-0.725,2.832,0.58
168.515,0.058,-0.017,-1.022,-0.855,2.733,0.519
168.530,0.055,-0.013,-1.025,-0.947,2.519,0.573
168.545,0.06,-0.017,-1.023,-0.794,2.893,0.634
168.560,0.058,-0.016,-1.033,-1.0,2.771,0.481
168.575,0.056,-0.013,-1.019,-0.924,2.802,0.458
168.590,0.055,-0.017,-1.024,-1.183,2.702,0.542
168.606,0.057,-0.013,-1.024,-0.824,2.885,0.687
168.621,0.055,-0.015,-1.025,-0.847,2.802,0.229
168.635,0.053,-0.02,-1.028,-1.008,2.557,0.466
168.651,0.057,-0.014,-1.019,-0.977,2.641,0.458
168.666,0.057,-0.016,-1.027,-0.733,2.779,0.374
168.681,0.053,-0.011,-1.027,-0.855,3.115,0.496
168.696,0.058,-0.016,-1.027,-1.115,2.802,0.267
168.711,0.053,-0.016,-1.035,-0.985,2.595,0.527
168.726,0.057,-0.021,-1.028,-0.947,2.87,0.565
168.742,0.055,-0.018,-1.026,-0.702,2.565,0.71
168.757,0.055,-0.014,-1.022,-1.015,2.695,0.496
168.772,0.061,-0.013,-1.02,-0.702,2.817,0.656
168.787,0.057,-0.018,-1.025,-0.794,2.664,0.389
168.802,0.058,-0.01,-1.021,-0.817,2.901,0.397
168.818,0.053,-0.015,-1.031,-0.885,3.069,0.328
168.832,0.056,-0.015,-1.028,-1.031,3.031,0.634
168.847,0.055,-0.019,-1.023,-1.122,2.748,0.481
168.863,0.06,-0.013,-1.031,-0.847,2.679,0.672
168.878,0.055,-0.016,-1.022,-1.084,2.771,0.275
168.892,0.058,-0.015,-1.023,-0.916,2.885,0.55
168.908,0.058,-0.02,-1.026,-1.145,2.611,0.702
168.923,0.054,-0.014,-1.024,-0.893,2.519,0.427
168.938,0.06,-0.018,-1.028,-0.885,2.565,0.458
168.954,0.057,-0.011,-1.027,-0.733,2.855,0.511
168.968,0.057,-0.019,-1.027,-1.183,2.679,0.374
168.984,0.055,-0.012,-1.027,-0.939,2.718,0.511
168.999,0.06,-0.019,-1.027,-1.107,2.58,0.374
169.014,0.055,-0.018,-1.023,-0.809,2.786,0.458
169.029,0.059,-0.013,-1.022,-1.13,2.901,0.427
169.044,0.055,-0.014,-1.026,-1.038,2.817,0.435
169.059,0.058,-0.017,-1.022,-1.015,2.649,0.595
169.075,0.055,-0.017,-1.029,-1.061,2.611,0.26
169.090,0.057,-0.013,-1.022,-0.817,2.863,0.595
169.104,0.055,-0.017,-1.03,-0.924,2.779,0.321
169.120,0.059,-0.015,-1.028,-1.023,2.992,0.649
169.135,0.053,-0.015,-1.021,-1.122,2.527,0.275
169.150,0.057,-0.015,-1.027,-0.992,2.756,0.595
169.165,0.054,-0.014,-1.024,-1.115,2.634,0.573
169.180,0.059,-0.009,-1.03,-0.779,2.733,0.664
169.195,0.057,-0.015,-1.027,-0.962,2.565,0.557
169.211,0.058,-0.017,-1.026,-0.992,2.855,0.702
169.225,0.054,-0.018,-1.028,-1.008,2.71,0.473
169.241,0.059,-0.017,-1.027,-1.237,2.679,0.603
169.256,0.055,-0.014,-1.021,-0.824,2.779,0.687
169.271,0.056,-0.017,-1.024,-0.939,2.611,0.611
169.287,0.058,-0.015,-1.024,-0.947,2.748,0.611
169.301,0.057,-0.02,-1.021,-1.008,2.71,0.359
169.316,0.053,-0.016,-1.019,-1.076,2.908,0.573
169.332,0.054,-0.014,-1.027,-0.969,2.855,0.611
169.347,0.056,-0.015,-1.029,-0.992,2.588,0.71
169.361,0.053,-0.015,-1.02,-0.847,2.603,0.695
169.377,0.058,-0.018,-1.025,-0.939,2.473,0.382
169.392,0.057,-0.016,-1.026,-1.038,2.885,0.565
169.407,0.054,-0.018,-1.021,-1.061,2.733,0.527
169.423,0.056,-0.015,-1.034,-0.901,2.649,0.672
169.437,0.06,-0.015,-1.032,-0.763,2.87,0.481
169.453,0.056,-0.015,-1.017,-0.992,2.771,0.382
169.468,0.06,-0.015,-1.022,-1.0,2.855,0.542
169.483,0.057,-0.015,-1.025,-0.916,2.802,0.504
169.498,0.057,-0.018,-1.03,-1.038,2.885,0.588
169.513,0.059,-0.017,-1.024,-0.954,2.634,0.481
169.528,0.059,-0.018,-1.021,-1.168,2.748,0.466
169.544,0.057,-0.013,-1.022,-0.794,2.733,0.374
169.558,0.06,-0.016,-1.029,-0.992,2.817,0.542
169.573,0.058,-0.016,-1.024,-1.092,2.687,0.534
169.589,0.053,-0.015,-1.025,-0.847,2.786,0.588
169.604,0.056,-0.015,-1.02,-1.031,2.817,0.58
169.619,0.056,-0.017,-1.028,-0.954,2.954,0.443
169.634,0.058,-0.015,-1.02,-0.832,2.687,0.504
169.649,0.058,-0.018,-1.026,-0.878,2.725,0.45
169.664,0.058,-0.018,-1.028,-1.0,2.519,0.443
169.680,0.056,-0.017,-1.026,-1.046,2.725,0.656
169.694,0.056,-0.014,-1.024,-0.977,2.794,0.481
169.710,0.058,-0.014,-1.023,-0.878,2.664,0.511
169.725,0.055,-0.013,-1.026,-0.832,2.802,0.634
169.740,0.059,-0.016,-1.021,-0.962,2.756,0.527
169.755,0.06,-0.016,-1.029,-1.198,2.611,0.679
169.770,0.054,-0.013,-1.023,-0.969,2.863,0.29
169.785,0.055,-0.01,-1.027,-0.847,2.985,0.557
169.801,0.059,-0.019,-1.026,-0.901,2.931,0.374
169.816,0.059,-0.015,-1.027,-0.924,2.794,0.519
169.830,0.059,-0.013,-1.03,-1.023,2.771,0.641
169.846,0.061,-0.015,-1.028,-0.893,2.74,0.489
169.861,0.061,-0.017,-1.028,-0.969,2.733,0.496
169.876,0.054,-0.015,-1.016,-1.015,2.733,0.595
169.891,0.06,-0.014,-1.027,-1.16,2.718,0.511
169.906,0.057,-0.013,-1.022,-0.954,2.985,0.511
169.922,0.061,-0.018,-1.027,-1.008,2.901,0.527
169.937,0.058,-0.014,-1.026,-0.977,2.733,0.504
169.951,0.053,-0.013,-1.028,-0.962,2.901,0.458
169.967,0.056,-0.012,-1.022,-0.794,2.656,0.756
169.982,0.058,-0.014,-1.027,-1.053,2.664,0.267
169.997,0.061,-0.012,-1.022,-0.908,3.031,0.557
170.013,0.059,-0.015,-1.025,-0.84,2.58,0.252
170.027,0.059,-0.016,-1.024,-0.855,2.794,0.519
170.042,0.058,-0.017,-1.025,-0.855,2.748,0.435
170.058,0.054,-0.014,-1.021,-1.038,2.832,0.458
170.073,0.053,-0.016,-1.023,-1.031,2.939,0.534
170.087,0.056,-0.01,-1.022,-0.885,2.878,0.672
170.103,0.056,-0.015,-1.024,-0.985,2.672,0.366
170.118,0.058,-0.014,-1.023,-1.069,2.664,0.473
170.133,0.058,-0.018,-1.03,-1.053,2.809,0.595
170.149,0.055,-0.015,-1.025,-1.023,2.603,0.55
170.163,0.06,-0.017,-1.021,-0.87,2.779,0.58
170.179,0.057,-0.016,-1.023,-0.916,2.466,0.443
170.194,0.056,-0.018,-1.021,-1.069,2.74,0.573
170.209,0.056,-0.014,-1.021,-0.947,2.74,0.427
170.224,0.058,-0.01,-1.027,-0.893,2.985,0.565
170.239,0.055,-0.014,-1.016,-0.947,2.672,0.244
170.254,0.054,-0.018,-1.024,-1.015,2.702,0.382
170.270,0.059,-0.016,-1.027,-1.053,2.618,0.481
170.284,0.061,-0.019,-1.022,-0.802,2.771,0.832
170.299,0.056,-0.014,-1.024,-1.046,2.71,0.534
170.315,0.057,-0.018,-1.021,-0.969,2.634,0.542
170.330,0.058,-0.014,-1.02,-0.863,2.832,0.473
170.345,0.054,-0.013,-1.027,-1.145,2.954,0.473
170.360,0.057,-0.015,-1.029,-1.0,2.527,0.649
170.375,0.055,-0.018,-1.029,-0.969,2.748,0.511
170.390,0.059,-0.014,-1.024,-1.023,2.985,0.611
170.406,0.061,-0.015,-1.023,-0.939,2.656,0.443
170.420,0.058,-0.016,-1.027,-1.031,2.763,0.511
170.436,0.055,-0.02,-1.031,-0.885,2.565,0.511
170.451,0.055,-0.012,-1.023,-0.931,2.641,0.519
170.466,0.058,-0.016,-1.028,-0.947,2.718,0.496
170.482,0.059,-0.017,-1.025,-1.137,2.84,0.603
170.496,0.062,-0.015,-1.028,-0.924,2.931,0.649
170.511,0.062,-0.018,-1.03,-0.809,2.786,0.389
170.527,0.056,-0.017,-1.021,-1.038,2.962,0.534
170.542,0.06,-0.012,-1.029,-0.878,2.771,0.435
170.556,0.056,-0.014,-1.018,-1.183,2.74,0.534
170.572,0.057,-0.014,-1.018,-0.992,2.618,0.481
170.587,0.057,-0.013,-1.026,-0.878,3.038,0.84
170.602,0.057,-0.013,-1.024,-0.939,2.786,0.45
170.617,0.06,-0.019,-1.026,-1.076,2.931,0.389
170.632,0.061,-0.021,-1.03,-0.74,3.038,0.595
170.648,0.058,-0.02,-1.031,-0.939,2.565,0.473
170.663,0.06,-0.013,-1.028,-0.916,2.71,0.672
170.677,0.057,-0.012,-1.02,-1.008,2.573,0.542
170.693,0.058,-0.012,-1.02,-1.16,2.87,0.412
170.708,0.057,-0.014,-1.029,-1.038,2.687,0.809
170.723,0.055,-0.011,-1.025,-1.015,2.435,0.435
170.739,0.054,-0.015,-1.021,-1.053,2.855,0.534
170.753,0.058,-0.017,-1.023,-1.0,2.901,0.351
170.768,0.053,-0.017,-1.024,-0.756,2.527,0.527
170.784,0.058,-0.017,-1.025,-0.954,2.748,0.397
170.799,0.056,-0.019,-1.027,-1.053,2.733,0.427
170.813,0.057,-0.017,-1.03,-0.863,2.809,0.58
170.829,0.055,-0.013,-1.02,-0.824,2.565,0.58
170.844,0.056,-0.016,-1.026,-0.863,2.794,0.634
170.859,0.057,-0.017,-1.02,-0.931,2.664,0.504
170.875,0.056,-0.01,-1.026,-0.847,2.664,0.595
170.889,0.058,-0.015,-1.021,-1.023,2.954,0.565
170.905,0.058,-0.012,-1.028,-0.924,2.802,0.519
170.920,0.055,-0.017,-1.029,-1.13,2.786,0.573
170.935,0.055,-0.017,-1.024,-1.328,2.847,0.473
170.950,0.055,-0.013,-1.02,-0.954,2.573,0.282
170.965,0.055,-0.017,-1.028,-0.771,2.863,0.573
170.980,0.06,-0.013,-1.032,-0.977,2.687,0.664
170.996,0.06,-0.012,-1.021,-1.0,2.962,0.496
171.010,0.059,-0.015,-1.024,-0.977,2.641,0.588
171.025,0.055,-0.014,-1.028,-0.824,2.885,0.603
171.041,0.056,-0.016,-1.024,-1.046,2.695,0.42
171.056,0.058,-0.015,-1.027,-1.0,2.985,0.565
171.071,0.055,-0.014,-1.019,-1.046,2.771,0.374
171.086,0.056,-0.018,-1.028,-0.954,2.832,0.351
171.101,0.057,-0.018,-1.025,-1.015,2.679,0.359
171.117,0.058,-0.016,-1.019,-0.908,2.71,0.366
171.132,0.061,-0.014,-1.035,-1.015,2.786,0.74
171.146,0.057,-0.01,-1.026,-0.832,2.649,0.435
171.162,0.058,-0.015,-1.022,-0.679,2.794,0.435
171.177,0.055,-0.015,-1.024,-1.008,2.504,0.595
171.192,0.059,-0.017,-1.029,-0.863,2.878,0.58
171.207,0.054,-0.014,-1.024,-0.931,2.832,0.458
171.222,0.054,-0.019,-1.026,-0.885,2.656,0.496
171.237,0.056,-0.015,-1.021,-1.115,2.794,0.45
171.253,0.059,-0.016,-1.023,-1.137,2.595,0.435
171.268,0.058,-0.011,-1.021,-1.008,2.863,0.527
171.282,0.055,-0.016,-1.028,-0.809,2.55,0.359
171.298,0.056,-0.015,-1.024,-0.763,2.847,0.695
171.313,0.059,-0.016,-1.024,-0.916,2.87,0.573
171.328,0.059,-0.019,-1.028,-0.931,2.802,0.321
171.343,0.06,-0.012,-1.026,-1.107,2.779,0.595
171.358,0.055,-0.019,-1.027,-0.779,2.794,0.466
171.374,0.055,-0.013,-1.019,-1.076,2.847,0.267
171.389,0.055,-0.015,-1.022,-1.153,2.748,0.565
171.404,0.062,-0.016,-1.031,-1.031,2.863,0.534
171.419,0.054,-0.018,-1.02,-1.0,2.695,0.206
171.434,0.058,-0.015,-1.03,-1.069,2.595,0.489
171.449,0.061,-0.017,-1.021,-0.885,2.878,0.489
171.465,0.06,-0.014,-1.022,-0.916,2.588,0.748
171.479,0.057,-0.014,-1.033,-1.084,2.679,0.603
171.494,0.058,-0.02,-1.029,-1.015,2.771,0.718
171.510,0.056,-0.017,-1.016,-0.954,2.656,0.412
171.525,0.058,-0.018,-1.019,-0.985,2.702,0.519
171.539,0.057,-0.014,-1.02,-0.893,2.756,0.611
171.555,0.059,-0.014,-1.018,-0.832,2.626,0.489
171.570,0.059,-0.015,-1.028,-0.931,2.84,0.656
171.586,0.061,-0.019,-1.028,-0.786,2.641,0.588
171.601,0.055,-0.019,-1.022,-0.924,2.824,0.573
171.615,0.055,-0.017,-1.022,-1.061,2.794,0.489
171.631,0.056,-0.021,-1.024,-0.947,2.802,0.412
171.646,0.058,-0.019,-1.028,-1.084,2.641,0.382
171.661,0.057,-0.013,-1.027,-0.931,2.832,0.748
171.676,0.062,-0.014,-1.028,-1.115,2.855,0.527
171.691,0.059,-0.016,-1.027,-1.069,2.779,0.466
171.706,0.058,-0.012,-1.025,-1.031,2.817,0.366
171.722,0.052,-0.016,-1.027,-0.885,2.664,0.389
171.737,0.057,-0.017,-1.024,-0.947,2.74,0.435
171.751,0.056,-0.021,-1.018,-0.901,2.649,0.282
171.767,0.06,-0.016,-1.019,-1.137,2.718,0.42
171.782,0.056,-0.013,-1.023,-1.069,2.527,0.267
171.797,0.057,-0.013,-1.019,-1.0,2.718,0.618
171.812,0.055,-0.013,-1.031,-0.985,2.489,0.466
171.827,0.057,-0.015,-1.031,-0.901,2.84,0.733
171.843,0.056,-0.016,-1.03,-1.023,2.626,0.466
171.858,0.058,-0.014,-1.027,-0.939,2.794,0.527
171.873,0.062,-0.017,-1.023,-0.832,2.725,0.687
171.888,0.061,-0.016,-1.027,-0.954,2.55,0.344
171.903,0.057,-0.012,-1.024,-0.954,2.725,0.573
171.918,0.055,-0.016,-1.03,-0.931,2.931,0.679
171.934,0.056,-0.017,-1.02,-0.916,2.71,0.229
171.948,0.054,-0.019,-1.016,-0.634,2.817,0.504
171.963,0.058,-0.013,-1.017,-1.13,2.626,0.649
171.979,0.057,-0.013,-1.026,-0.977,2.794,0.534
171.994,0.057,-0.012,-1.021,-0.924,2.863,0.427
172.008,0.06,-0.021,-1.022,-0.771,2.618,0.313
172.024,0.056,-0.017,-1.024,-0.847,2.824,0.366
172.039,0.058,-0.019,-1.023,-1.191,2.58,0.824
172.054,0.06,-0.021,-1.026,-1.16,2.931,0.809
172.070,0.059,-0.016,-1.029,-1.038,2.687,0.489
172.084,0.059,-0.014,-1.023,-0.954,2.786,0.504
172.100,0.055,-0.018,-1.021,-1.115,2.763,0.374
172.115,0.059,-0.015,-1.032,-0.779,2.656,0.511
172.130,0.055,-0.018,-1.021,-0.931,2.901,0.489
172.145,0.051,-0.016,-1.026,-1.122,2.924,0.588
172.160,0.055,-0.017,-1.023,-0.87,3.038,0.458
172.175,0.058,-0.021,-1.027,-0.931,2.809,0.359
172.191,0.061,-0.014,-1.025,-0.924,2.565,0.557
172.206,0.056,-0.014,-1.029,-1.107,2.802,0.748
172.220,0.058,-0.018,-1.024,-0.969,2.771,0.634
172.236,0.055,-0.014,-1.032,-0.847,2.672,0.382
172.251,0.053,-0.015,-1.028,-1.107,2.985,0.519
172.266,0.05,-0.014,-1.018,-0.985,2.824,0.595
172.281,0.059,-0.014,-1.024,-1.023,2.832,0.588
172.296,0.058,-0.013,-1.02,-1.008,2.786,0.458
172.312,0.06,-0.014,-1.024,-0.992,2.786,0.427
172.327,0.059,-0.018,-1.024,-0.992,2.748,0.695
172.341,0.054,-0.015,-1.017,-1.0,2.748,0.42
172.357,0.058,-0.016,-1.025,-1.076,2.87,0.519
172.372,0.058,-0.016,-1.019,-0.863,2.824,0.595
172.387,0.058,-0.015,-1.034,-1.046,2.863,0.458
172.403,0.058,-0.015,-1.024,-1.046,2.824,0.672
172.417,0.056,-0.018,-1.026,-0.893,2.863,0.473
172.432,0.053,-0.012,-1.028,-0.939,2.771,0.611
172.448,0.049,-0.013,-1.021,-0.939,2.687,0.481
172.463,0.057,-0.013,-1.021,-1.023,2.802,0.641
172.477,0.057,-0.014,-1.023,-0.969,2.771,0.489
172.493,0.056,-0.018,-1.017,-1.015,2.84,0.473
172.508,0.058,-0.015,-1.024,-1.0,2.603,0.557
172.523,0.06,-0.021,-1.024,-0.931,2.855,0.634
172.538,0.051,-0.018,-1.029,-0.924,2.969,0.519
172.553,0.055,-0.012,-1.02,-1.015,2.809,0.275
172.569,0.053,-0.016,-1.024,-0.832,2.534,0.649
172.584,0.059,-0.015,-1.025,-1.092,2.55,0.489
172.599,0.056,-0.014,-1.021,-0.832,2.725,0.519
172.614,0.056,-0.016,-1.026,-0.809,2.603,0.565
172.629,0.054,-0.016,-1.021,-0.908,2.718,0.458
172.644,0.054,-0.014,-1.025,-0.695,2.748,0.55
172.660,0.058,-0.02,-1.019,-1.137,2.634,0.405
172.674,0.06,-0.015,-1.024,-0.901,2.756,0.42
172.689,0.06,-0.019,-1.025,-0.962,2.786,0.45
172.705,0.056,-0.014,-1.03,-1.198,2.786,0.649
172.720,0.054,-0.013,-1.022,-0.931,2.649,0.374
172.734,0.058,-0.014,-1.026,-0.84,2.58,0.679
172.750,0.057,-0.014,-1.023,-0.908,3.023,0.45
172.765,0.055,-0.014,-1.027,-1.084,2.779,0.603
172.781,0.052,-0.015,-1.02,-0.824,2.588,0.557
172.796,0.06,-0.016,-1.034,-0.954,2.649,0.176
172.810,0.059,-0.015,-1.02,-1.023,2.878,0.611
172.826,0.062,-0.015,-1.026,-0.977,2.84,0.489
172.841,0.059,-0.022,-1.027,-0.817,2.618,0.595
172.856,0.056,-0.017,-1.026,-0.985,2.58,0.328
172.871,0.053,-0.015,-1.021,-0.893,2.901,0.687
172.886,0.057,-0.015,-1.024,-0.962,2.802,0.542
172.901,0.056,-0.01,-1.028,-0.931,2.573,0.55
172.917,0.055,-0.011,-1.022,-0.908,2.779,0.58
172.931,0.052,-0.014,-1.024,-0.916,2.664,0.58
172.946,0.054,-0.017,-1.025,-1.092,2.901,0.634
172.962,0.06,-0.018,-1.027,-0.893,2.924,0.466
172.977,0.058,-0.018,-1.02,-0.893,2.58,0.481
172.992,0.059,-0.011,-1.028,-1.069,2.924,0.321
173.007,0.06,-0.015,-1.026,-0.969,2.756,0.344
173.022,0.057,-0.011,-1.027,-0.901,2.863,0.504
173.038,0.054,-0.01,-1.028,-1.099,2.824,0.641
173.053,0.052,-0.015,-1.027,-0.786,2.588,0.496
173.067,0.053,-0.016,-1.022,-1.046,2.763,0.603
173.083,0.061,-0.017,-1.024,-0.985,2.55,0.435
173.098,0.061,-0.02,-1.027,-0.824,2.916,0.618
173.113,0.059,-0.014,-1.03,-0.908,2.779,0.565
173.128,0.059,-0.012,-1.015,-0.885,2.71,0.626
173.143,0.056,-0.016,-1.025,-0.718,2.824,0.45
173.158,0.057,-0.016,-1.018,-1.206,2.824,0.374
173.174,0.057,-0.014,-1.025,-0.954,2.893,0.626
173.189,0.059,-0.014,-1.021,-1.061,3.046,0.42
173.203,0.055,-0.018,-1.023,-0.771,2.855,0.824
173.219,0.055,-0.012,-1.021,-0.939,2.565,0.389
173.234,0.058,-0.018,-1.022,-1.084,2.855,0.832
173.250,0.057,-0.017,-1.023,-1.015,2.504,0.573
173.264,0.053,-0.019,-1.026,-0.954,2.664,0.656
173.279,0.052,-0.015,-1.027,-0.847,2.878,0.702
173.295,0.062,-0.018,-1.024,-1.046,2.71,0.603
173.310,0.058,-0.014,-1.033,-0.847,2.595,0.542
173.324,0.059,-0.014,-1.027,-0.977,2.656,0.397
173.340,0.061,-0.013,-1.029,-0.855,2.87,0.527
173.355,0.056,-0.016,-1.025,-0.855,3.015,0.649
173.370,0.055,-0.016,-1.024,-0.939,2.725,0.534
173.386,0.057,-0.013,-1.025,-1.0,2.802,0.588
173.400,0.057,-0.014,-1.028,-0.855,2.702,0.565
173.415,0.054,-0.011,-1.025,-1.023,2.794,0.374
173.431,0.059,-0.019,-1.022,-0.924,2.763,0.557
173.446,0.057,-0.019,-1.027,-1.031,2.634,0.443
173.460,0.054,-0.019,-1.022,-0.947,2.779,0.557
173.476,0.056,-0.021,-1.028,-1.023,2.824,0.664
173.491,0.058,-0.016,-1.018,-0.947,2.725,0.443
173.507,0.062,-0.015,-1.024,-0.847,2.702,0.45
173.522,0.06,-0.015,-1.021,-1.053,2.71,0.458
173.536,0.055,-0.011,-1.025,-1.107,2.718,0.504
173.552,0.053,-0.013,-1.014,-0.763,2.756,0.359
173.567,0.057,-0.015,-1.028,-0.885,2.878,0.542
173.582,0.053,-0.013,-1.028,-0.901,2.649,0.481
173.597,0.057,-0.016,-1.03,-0.863,2.786,0.458
173.612,0.059,-0.015,-1.027,-0.763,2.672,0.573
173.627,0.061,-0.018,-1.02,-0.947,2.885,0.511
173.643,0.058,-0.018,-1.027,-1.046,2.626,0.397
173.657,0.06,-0.013,-1.026,-0.863,2.756,0.588
173.672,0.053,-0.014,-1.029,-1.084,2.74,0.565
173.688,0.051,-0.016,-1.027,-0.908,2.74,0.679
173.703,0.059,-0.015,-1.027,-1.084,2.664,0.336
173.718,0.056,-0.012,-1.025,-0.901,2.786,0.58
173.733,0.056,-0.02,-1.024,-1.015,2.679,0.183
173.748,0.059,-0.013,-1.021,-0.977,2.84,0.656
173.764,0.061,-0.02,-1.024,-1.046,2.626,0.412
173.779,0.053,-0.021,-1.026,-0.962,2.802,0.374
173.793,0.058,-0.017,-1.028,-0.84,2.763,0.542
173.809,0.059,-0.016,-1.024,-0.977,2.924,0.443
173.824,0.053,-0.012,-1.026,-0.901,2.748,0.664
173.839,0.058,-0.012,-1.024,-0.916,2.687,0.496
173.855,0.058,-0.013,-1.026,-0.992,2.84,0.397
173.869,0.058,-0.013,-1.027,-1.168,2.611,0.519
173.884,0.055,-0.018,-1.024,-0.74,2.939,0.313
173.900,0.058,-0.02,-1.03,-1.046,2.74,0.588
173.915,0.056,-0.021,-1.029,-0.954,2.817,0.611
173.929,0.06,-0.019,-1.026,-0.901,2.763,0.466
173.945,0.062,-0.015,-1.015,-0.885,2.885,0.519
173.960,0.055,-0.015,-1.019,-1.115,2.771,0.626
173.976,0.057,-0.016,-1.021,-1.038,2.817,0.611
173.990,0.056,-0.013,-1.029,-0.969,2.817,0.382
174.005,0.06,-0.012,-1.025,-1.038,2.916,0.427
174.021,0.06,-0.011,-1.022,-0.87,2.733,0.305
174.036,0.059,-0.021,-1.023,-1.183,2.832,0.527
174.051,0.058,-0.018,-1.027,-1.046,2.916,0.519
174.066,0.061,-0.02,-1.027,-1.168,2.977,0.611
174.081,0.06,-0.017,-1.027,-1.061,2.733,0.397
174.096,0.057,-0.02,-1.024,-0.916,2.84,0.328
174.112,0.054,-0.016,-1.02,-1.176,2.679,0.405
174.126,0.054,-0.013,-1.022,-0.885,2.687,0.611
174.141,0.058,-0.016,-1.026,-0.969,2.924,0.557
174.157,0.058,-0.021,-1.021,-0.939,2.634,0.389
174.172,0.056,-0.014,-1.022,-1.107,2.618,0.458
174.187,0.057,-0.015,-1.026,-0.878,2.908,0.397
174.202,0.055,-0.011,-1.015,-0.916,2.794,0.405
174.217,0.061,-0.019,-1.017,-1.168,2.962,0.718
174.233,0.062,-0.013,-1.029,-0.992,2.641,0.466
174.248,0.054,-0.013,-1.028,-1.076,2.656,0.489
174.262,0.056,-0.015,-1.03,-1.076,2.695,0.664
174.278,0.057,-0.016,-1.02,-1.229,2.573,0.687
174.293,0.052,-0.014,-1.018,-1.0,2.71,0.366
174.308,0.054,-0.011,-1.018,-0.901,2.771,0.649
174.323,0.053,-0.011,-1.027,-0.954,2.595,0.496
174.338,0.058,-0.013,-1.027,-1.031,2.71,0.588
174.353,0.054,-0.01,-1.021,-0.824,2.611,0.496
174.369,0.059,-0.011,-1.024,-0.695,2.916,0.634
174.384,0.053,-0.016,-1.021,-0.962,2.718,0.466
174.398,0.056,-0.02,-1.026,-1.061,2.908,0.664
174.414,0.057,-0.015,-1.019,-0.832,2.725,0.626
174.429,0.055,-0.016,-1.023,-1.0,2.794,0.405
174.445,0.057,-0.013,-1.02,-1.153,2.71,0.565
174.459,0.054,-0.015,-1.028,-1.031,2.786,0.611
174.474,0.056,-0.013,-1.027,-0.901,2.779,0.519
174.490,0.053,-0.014,-1.029,-0.809,2.695,0.565
174.505,0.057,-0.014,-1.024,-0.885,2.718,0.321
174.520,0.055,-0.02,-1.022,-0.817,2.687,0.595
174.535,0.057,-0.018,-1.031,-1.16,2.779,0.496
174.550,0.062,-0.015,-1.021,-1.0,2.832,0.427
174.565,0.056,-0.016,-1.029,-0.908,2.611,0.618
174.581,0.06,-0.02,-1.02,-0.947,2.893,0.725
174.595,0.055,-0.017,-1.017,-0.847,2.855,0.626
174.610,0.056,-0.016,-1.022,-0.939,3.053,0.649
174.626,0.057,-0.015,-1.029,-1.16,2.748,0.458
174.641,0.058,-0.021,-1.027,-0.908,2.603,0.695
174.655,0.059,-0.016,-1.019,-1.061,2.748,0.573
174.671,0.057,-0.016,-1.028,-0.931,2.634,0.412
174.686,0.056,-0.016,-1.017,-0.977,2.641,0.405
174.702,0.055,-0.018,-1.028,-1.0,2.863,0.695
174.717,0.056,-0.012,-1.028,-0.939,2.466,0.504
174.731,0.057,-0.014,-1.027,-1.069,2.924,0.481
174.747,0.06,-0.016,-1.019,-0.969,3.038,0.504
174.762,0.057,-0.014,-1.023,-0.794,2.718,0.466
174.777,0.052,-0.018,-1.025,-1.107,2.695,0.595
174.792,0.056,-0.018,-1.023,-1.046,2.847,0.336
174.807,0.054,-0.015,-1.019,-0.954,2.763,0.603
174.822,0.058,-0.014,-1.028,-1.023,2.802,0.359
174.838,0.056,-0.018,-1.028,-1.015,2.687,0.611
174.853,0.055,-0.019,-1.022,-1.0,2.817,0.511
174.867,0.055,-0.015,-1.026,-0.969,2.664,0.458
174.883,0.053,-0.018,-1.022,-1.069,2.725,0.511
174.898,0.054,-0.012,-1.023,-1.122,2.649,0.466
174.914,0.054,-0.017,-1.02,-0.954,2.542,0.55
174.928,0.058,-0.014,-1.024,-1.0,2.74,0.542
174.943,0.06,-0.018,-1.019,-0.84,2.794,0.55
174.959,0.058,-0.015,-1.029,-0.672,2.824,0.542
174.974,0.061,-0.017,-1.024,-0.855,2.779,0.351
174.988,0.053,-0.015,-1.028,-0.901,2.908,0.527
175.004,0.056,-0.015,-1.025,-0.87,2.672,0.473
175.019,0.055,-0.014,-1.024,-1.107,2.756,0.45
175.034,0.058,-0.017,-1.023,-1.153,2.847,0.603
175.050,0.061,-0.012,-1.024,-0.969,2.763,0.42
175.064,0.056,-0.019,-1.026,-0.878,2.817,0.389
175.079,0.057,-0.017,-1.027,-1.099,2.763,0.733
175.095,0.055,-0.017,-1.025,-1.008,2.802,0.573
175.110,0.055,-0.015,-1.031,-0.916,2.718,0.397
175.124,0.057,-0.015,-1.02,-1.099,2.733,0.42
175.140,0.059,-0.013,-1.032,-1.053,2.725,0.443
175.155,0.054,-0.018,-1.017,-0.962,2.908,0.351
175.171,0.055,-0.014,-1.031,-1.046,2.71,0.336
175.185,0.057,-0.016,-1.026,-1.107,2.763,0.504
175.200,0.055,-0.016,-1.022,-0.969,2.733,0.542
175.216,0.052,-0.01,-1.024,-0.885,2.725,0.511
175.231,0.058,-0.017,-1.022,-1.015,2.702,0.565
175.246,0.061,-0.014,-1.023,-0.802,2.71,0.496
175.261,0.055,-0.015,-1.028,-0.779,2.557,0.527
175.276,0.058,-0.018,-1.028,-0.908,2.489,0.611
175.291,0.056,-0.013,-1.026,-0.87,2.511,0.611
175.307,0.058,-0.015,-1.023,-1.038,2.634,0.649
175.321,0.056,-0.015,-1.026,-0.947,2.718,0.397
175.336,0.061,-0.018,-1.021,-1.092,2.511,0.374
175.352,0.058,-0.012,-1.029,-0.939,2.847,0.611
175.367,0.057,-0.012,-1.02,-0.824,2.84,0.71
175.381,0.059,-0.021,-1.025,-0.992,2.802,0.511
175.397,0.06,-0.017,-1.031,-0.87,2.809,0.511
175.412,0.058,-0.018,-1.024,-0.908,2.695,0.557
175.428,0.058,-0.014,-1.016,-1.069,2.504,0.527
175.443,0.059,-0.014,-1.024,-0.863,2.595,0.542
175.457,0.058,-0.014,-1.02,-1.084,2.695,0.504
175.473,0.058,-0.016,-1.025,-0.779,2.679,0.244
175.488,0.053,-0.017,-1.025,-0.954,2.786,0.511
175.503,0.058,-0.018,-1.031,-0.908,2.802,0.664
175.518,0.059,-0.014,-1.024,-1.122,2.473,0.58
175.533,0.055,-0.015,-1.026,-1.061,2.824,0.42
175.548,0.058,-0.014,-1.027,-0.87,2.649,0.344
175.564,0.058,-0.013,-1.021,-0.954,2.779,0.687
175.579,0.057,-0.015,-1.025,-0.977,2.687,0.489
175.593,0.057,-0.014,-1.022,-0.916,2.802,0.237
175.609,0.056,-0.014,-1.02,-1.122,2.611,0.527
175.624,0.052,-0.016,-1.022,-0.985,2.802,0.618
175.640,0.058,-0.015,-1.025,-0.977,2.718,0.71
175.654,0.054,-0.013,-1.027,-0.977,2.649,0.504
175.669,0.058,-0.016,-1.026,-1.16,2.618,0.527
175.685,0.057,-0.014,-1.023,-0.985,2.58,0.336
175.700,0.055,-0.015,-1.029,-0.756,2.496,0.466
175.714,0.057,-0.014,-1.028,-1.046,2.893,0.473
175.730,0.06,-0.015,-1.021,-1.031,3.008,0.298
175.745,0.056,-0.018,-1.03,-1.053,3.0,0.374
175.760,0.055,-0.013,-1.024,-1.023,2.718,0.504
175.776,0.055,-0.013,-1.022,-0.916,2.695,0.74
175.790,0.061,-0.016,-1.028,-0.885,2.763,0.649
175.805,0.057,-0.017,-1.028,-1.008,2.893,0.435
175.821,0.056,-0.019,-1.019,-1.076,2.916,0.374
175.836,0.056,-0.018,-1.023,-0.954,2.824,0.412
175.850,0.054,-0.02,-1.026,-0.901,2.718,0.634
175.866,0.058,-0.014,-1.022,-1.0,2.725,0.336
175.881,0.059,-0.013,-1.023,-0.824,2.71,0.695
175.897,0.056,-0.018,-1.022,-1.115,2.634,0.466
175.911,0.061,-0.018,-1.023,-0.885,2.725,0.55
175.926,0.055,-0.017,-1.017,-0.756,2.565,0.649
175.942,0.058,-0.015,-1.02,-0.931,2.718,0.45
175.957,0.059,-0.011,-1.029,-0.71,3.076,0.595
175.972,0.054,-0.01,-1.026,-1.015,2.649,0.42
175.987,0.056,-0.018,-1.022,-0.931,2.702,0.489
176.002,0.054,-0.017,-1.022,-0.962,2.74,0.595
176.017,0.058,-0.018,-1.021,-0.947,2.87,0.702
176.033,0.059,-0.016,-1.019,-0.908,2.611,0.305
176.047,0.057,-0.017,-1.024,-0.794,2.863,0.565
176.062,0.058,-0.011,-1.023,-1.008,3.023,0.534
176.078,0.059,-0.02,-1.03,-1.069,2.595,0.679
176.093,0.059,-0.019,-1.023,-1.031,2.679,0.321
176.109,0.056,-0.015,-1.025,-0.962,2.992,0.458
176.123,0.06,-0.015,-1.026,-1.031,2.954,0.511
176.138,0.052,-0.017,-1.017,-0.939,2.641,0.443
176.154,0.056,-0.014,-1.021,-0.962,2.664,0.374
176.169,0.063,-0.016,-1.026,-0.885,2.756,0.519
176.183,0.059,-0.013,-1.023,-1.122,2.718,0.504
176.199,0.058,-0.017,-1.027,-1.107,2.733,0.565
176.214,0.059,-0.013,-1.021,-0.863,2.626,0.58
176.229,0.055,-0.012,-1.022,-1.092,2.527,0.382
176.244,0.059,-0.013,-1.021,-1.0,2.802,0.534
176.259,0.054,-0.014,-1.028,-0.954,2.763,0.359
176.274,0.056,-0.016,-1.024,-0.947,2.855,0.389
176.290,0.063,-0.016,-1.027,-0.855,2.725,0.687
176.305,0.058,-0.013,-1.025,-0.992,3.076,0.405
176.319,0.057,-0.01,-1.025,-0.947,2.87,0.305
176.335,0.057,-0.015,-1.019,-0.985,2.695,0.504
176.350,0.053,-0.015,-1.028,-1.092,2.641,0.466
176.366,0.056,-0.015,-1.023,-1.023,2.809,0.336
176.380,0.057,-0.017,-1.025,-0.924,2.695,0.672
176.395,0.059,-0.016,-1.023,-0.916,2.664,0.679
176.411,0.058,-0.013,-1.024,-0.87,3.0,0.382
176.426,0.059,-0.017,-1.025,-0.802,2.71,0.466
176.440,0.053,-0.013,-1.026,-1.076,2.603,0.321
176.456,0.056,-0.015,-1.028,-0.954,2.664,0.42
176.471,0.06,-0.015,-1.028,-0.863,2.702,0.481
176.486,0.058,-0.011,-1.027,-0.985,2.817,0.443
176.502,0.057,-0.016,-1.026,-0.748,2.885,0.74
176.516,0.058,-0.019,-1.023,-1.099,2.817,0.412
176.531,0.054,-0.018,-1.025,-1.0,2.962,0.672
176.547,0.054,-0.012,-1.031,-0.908,2.542,0.458
176.562,0.053,-0.017,-1.031,-1.122,2.603,0.573
176.576,0.057,-0.015,-1.021,-0.954,2.931,0.55
176.592,0.059,-0.014,-1.025,-1.008,2.74,0.344
176.607,0.056,-0.016,-1.024,-0.908,2.71,0.588
176.623,0.06,-0.016,-1.022,-1.0,2.779,0.55
176.637,0.051,-0.018,-1.025,-0.885,2.893,0.611
176.652,0.056,-0.014,-1.025,-0.84,2.634,0.473
176.668,0.063,-0.014,-1.024,-0.786,2.771,0.382
176.683,0.06,-0.015,-1.028,-0.908,2.931,0.267
176.698,0.06,-0.012,-1.026,-0.977,2.527,0.244
176.713,0.058,-0.016,-1.028,-1.046,2.649,0.321
176.728,0.056,-0.021,-1.03,-1.069,2.802,0.275
176.743,0.058,-0.017,-1.035,-0.824,2.733,0.229
176.759,0.055,-0.013,-1.026,-0.916,2.527,0.45
176.773,0.059,-0.013,-1.024,-0.893,2.916,0.359
176.788,0.058,-0.013,-1.025,-0.916,2.87,0.344
176.804,0.054,-0.018,-1.023,-1.145,2.557,0.466
176.819,0.055,-0.012,-1.022,-1.015,2.664,0.542
176.834,0.054,-0.017,-1.026,-0.924,2.55,0.641
176.849,0.055,-0.014,-1.02,-0.863,2.817,0.588
176.864,0.057,-0.016,-1.027,-0.954,2.885,0.71
176.880,0.054,-0.013,-1.021,-0.878,2.702,0.809
176.895,0.058,-0.014,-1.017,-0.847,2.832,0.466
176.909,0.06,-0.016,-1.022,-0.87,2.611,0.45
176.925,0.053,-0.017,-1.021,-0.977,2.481,0.55
176.940,0.054,-0.017,-1.026,-0.908,2.87,0.649
176.955,0.056,-0.017,-1.03,-1.046,2.664,0.695
176.970,0.056,-0.014,-1.028,-0.908,2.74,0.603
176.985,0.058,-0.017,-1.022,-1.069,2.802,0.542
177.000,0.058,-0.012,-1.023,-0.718,2.847,0.573
177.016,0.057,-0.017,-1.027,-1.008,2.702,0.573
177.030,0.054,-0.018,-1.03,-1.023,2.664,0.496
177.045,0.058,-0.016,-1.027,-0.985,2.557,0.397
177.061,0.056,-0.016,-1.025,-0.756,2.908,0.779
177.076,0.057,-0.014,-1.024,-0.901,2.702,0.489
177.092,0.06,-0.017,-1.014,-0.969,2.618,0.565
177.106,0.059,-0.021,-1.027,-0.924,2.756,0.45
177.121,0.058,-0.015,-1.025,-1.031,2.695,0.756
177.137,0.058,-0.015,-1.023,-0.977,2.771,0.534
177.152,0.058,-0.015,-1.025,-1.038,2.672,0.496
177.166,0.057,-0.017,-1.019,-0.779,2.832,0.519
177.182,0.056,-0.016,-1.024,-1.107,2.725,0.611
177.197,0.061,-0.016,-1.023,-0.84,2.87,0.542
177.212,0.058,-0.016,-1.029,-1.0,2.733,0.473
177.227,0.055,-0.018,-1.025,-0.931,2.725,0.557
177.242,0.051,-0.017,-1.018,-0.649,2.87,0.634
177.257,0.055,-0.012,-1.028,-1.008,2.71,0.412
177.273,0.056,-0.016,-1.031,-1.053,2.855,0.473
177.288,0.058,-0.015,-1.026,-0.969,2.718,0.611
177.302,0.062,-0.014,-1.019,-0.977,2.634,0.496
177.318,0.058,-0.015,-1.029,-1.198,2.809,0.626
177.333,0.057,-0.017,-1.026,-1.168,2.863,0.481
177.349,0.054,-0.015,-1.028,-1.115,2.656,0.595
177.363,0.058,-0.012,-1.025,-0.916,2.626,0.382
177.378,0.058,-0.018,-1.023,-0.947,2.702,0.504
177.394,0.058,-0.014,-1.016,-1.053,2.885,0.634
177.409,0.059,-0.018,-1.024,-1.046,2.672,0.305
177.424,0.057,-0.015,-1.029,-0.779,2.756,0.412
177.439,0.056,-0.019,-1.029,-0.931,2.588,0.382
177.454,0.056,-0.017,-1.023,-1.229,2.664,0.458
177.469,0.058,-0.018,-1.025,-0.977,2.885,0.427
177.485,0.057,-0.016,-1.023,-1.16,2.802,0.603
177.499,0.057,-0.014,-1.018,-0.977,2.702,0.618
177.514,0.058,-0.015,-1.029,-0.87,3.031,0.58
177.530,0.058,-0.018,-1.021,-1.137,2.618,0.405
177.545,0.058,-0.017,-1.024,-0.931,2.824,0.481
177.560,0.056,-0.019,-1.026,-1.031,2.695,0.374
177.575,0.063,-0.011,-1.023,-0.664,2.374,0.412
177.590,0.058,-0.014,-1.026,-0.901,2.695,0.435
177.606,0.057,-0.019,-1.025,-0.687,2.771,0.466
177.621,0.058,-0.017,-1.019,-1.008,2.664,0.351
177.635,0.06,-0.02,-1.026,-0.954,2.939,0.611
177.651,0.055,-0.015,-1.029,-0.901,2.641,0.244
177.666,0.055,-0.012,-1.026,-1.115,2.679,0.435
177.681,0.058,-0.016,-1.026,-0.977,2.702,0.473
177.696,0.06,-0.018,-1.024,-0.893,2.87,0.725
177.711,0.06,-0.013,-1.028,-0.962,2.573,0.214
177.726,0.058,-0.015,-1.03,-1.031,2.611,0.435
177.742,0.057,-0.016,-1.02,-0.748,2.863,0.74
177.757,0.06,-0.014,-1.02,-0.901,2.695,0.595
177.771,0.059,-0.01,-1.029,-0.977,2.634,0.473
177.787,0.055,-0.016,-1.03,-1.198,2.809,0.603
177.802,0.058,-0.016,-1.027,-1.069,2.84,0.496
177.818,0.055,-0.017,-1.031,-1.183,2.641,0.496
177.832,0.056,-0.015,-1.028,-1.038,2.901,0.603
177.847,0.058,-0.022,-1.022,-0.893,2.733,0.321
177.863,0.058,-0.017,-1.021,-0.885,2.634,0.504
177.878,0.057,-0.01,-1.02,-0.733,2.847,0.511
177.892,0.056,-0.016,-1.028,-1.183,2.702,0.305
177.908,0.058,-0.016,-1.028,-0.878,2.74,0.13
177.923,0.054,-0.024,-1.024,-0.893,2.763,0.649
177.938,0.056,-0.019,-1.021,-1.046,2.786,0.527
177.954,0.058,-0.013,-1.022,-0.84,2.863,0.496
177.968,0.055,-0.016,-1.03,-1.0,2.603,0.519
177.983,0.058,-0.018,-1.023,-0.924,2.802,0.595
177.999,0.054,-0.018,-1.021,-0.672,2.824,0.786
178.014,0.057,-0.019,-1.022,-1.023,2.672,0.679
178.029,0.056,-0.017,-1.025,-1.275,2.672,0.405
178.044,0.056,-0.015,-1.024,-1.015,2.71,0.183
178.059,0.055,-0.015,-1.027,-0.84,2.595,0.603
178.075,0.055,-0.016,-1.026,-0.931,2.725,0.557
178.089,0.053,-0.013,-1.021,-1.084,2.718,0.527
178.104,0.058,-0.014,-1.025,-0.824,2.595,0.389
178.120,0.06,-0.013,-1.031,-0.847,3.038,0.634
178.135,0.058,-0.014,-1.024,-1.008,2.718,0.557
178.150,0.054,-0.015,-1.027,-0.824,2.626,0.45
178.165,0.062,-0.021,-1.031,-1.13,3.0,0.595
178.180,0.058,-0.015,-1.023,-1.061,2.947,0.298
178.195,0.055,-0.01,-1.02,-1.015,2.664,0.458
178.211,0.058,-0.012,-1.024,-0.992,2.611,0.489
178.225,0.06,-0.011,-1.026,-1.031,2.863,0.359
178.240,0.057,-0.02,-1.017,-1.0,2.939,0.435
178.256,0.057,-0.016,-1.022,-0.885,2.863,0.695
178.271,0.056,-0.017,-1.023,-1.115,2.878,0.748
178.286,0.057,-0.017,-1.018,-1.214,2.924,0.656
178.301,0.059,-0.015,-1.024,-0.939,2.656,0.595
178.316,0.058,-0.011,-1.027,-0.863,2.656,0.534
178.332,0.062,-0.015,-1.031,-0.962,2.863,0.519
178.347,0.059,-0.016,-1.025,-0.992,2.656,0.458
178.361,0.058,-0.016,-1.027,-1.214,2.718,0.382
178.377,0.058,-0.018,-1.028,-0.977,2.939,0.298
178.392,0.056,-0.018,-1.024,-0.939,2.847,0.145
178.407,0.057,-0.016,-1.026,-1.092,2.565,0.641
178.422,0.057,-0.016,-1.025,-0.924,3.023,0.611
178.437,0.058,-0.013,-1.021,-1.038,2.802,0.489
178.452,0.056,-0.021,-1.028,-0.885,2.779,0.42
178.468,0.056,-0.011,-1.019,-0.947,2.985,0.664
178.483,0.054,-0.016,-1.028,-1.145,2.771,0.672
178.498,0.055,-0.016,-1.025,-1.115,2.924,0.595
178.513,0.057,-0.018,-1.031,-1.061,2.588,0.519
178.528,0.057,-0.013,-1.028,-1.053,2.603,0.603
178.544,0.056,-0.016,-1.029,-1.061,2.618,0.282
178.558,0.059,-0.018,-1.025,-0.855,2.435,0.641
178.573,0.056,-0.014,-1.028,-0.969,2.626,0.45
178.589,0.055,-0.016,-1.02,-0.931,2.74,0.427
178.604,0.06,-0.016,-1.025,-1.038,2.504,0.435
178.619,0.055,-0.014,-1.029,-0.947,2.565,0.519
178.634,0.055,-0.014,-1.024,-0.893,3.137,0.344
178.649,0.053,-0.018,-1.028,-0.863,2.679,0.458
178.664,0.055,-0.013,-1.027,-0.847,2.916,0.405
178.680,0.052,-0.015,-1.027,-0.885,2.893,0.664
178.694,0.058,-0.017,-1.025,-1.046,2.863,0.435
178.709,0.057,-0.014,-1.019,-0.847,2.885,0.344
178.725,0.05,-0.02,-1.025,-0.954,2.763,0.405
178.740,0.056,-0.014,-1.029,-1.015,2.649,0.214
178.755,0.055,-0.015,-1.026,-1.046,2.748,0.702
178.770,0.058,-0.012,-1.024,-1.107,2.641,0.359
178.785,0.055,-0.012,-1.023,-1.038,2.733,0.542
178.801,0.056,-0.017,-1.027,-0.687,2.649,0.534
178.816,0.059,-0.014,-1.021,-1.046,2.885,0.435
178.830,0.059,-0.018,-1.023,-0.71,2.794,0.573
178.846,0.056,-0.019,-1.031,-0.924,2.74,0.847
178.861,0.053,-0.016,-1.027,-1.427,0.802,0.603
178.876,0.057,-0.013,-1.021,-1.214,1.611,0.687
178.891,0.056,-0.017,-1.02,-1.397,1.71,0.252
178.906,0.055,-0.014,-1.03,-1.313,2.061,0.351
178.921,0.056,-0.016,-1.023,-0.954,2.084,0.397
178.937,0.055,-0.01,-1.031,-1.229,1.969,0.588
178.952,0.057,-0.016,-1.023,-1.275,2.031,0.496
178.966,0.056,-0.014,-1.031,-1.26,1.947,0.405
178.982,0.056,-0.011,-1.027,-1.29,2.115,0.443
178.997,0.052,-0.013,-1.031,-0.847,3.344,0.595
179.013,0.059,-0.014,-1.029,-0.863,3.389,0.305
179.027,0.055,-0.016,-1.027,-0.916,3.275,0.313
179.042,0.052,-0.018,-1.031,-1.176,2.267,0.42
179.058,0.056,-0.015,-1.02,-1.702,0.214,0.87
179.073,0.055,-0.016,-1.023,-1.809,-0.267,0.931
179.087,0.055,-0.025,-1.025,-1.809,0.084,1.267
179.103,0.055,-0.019,-1.023,-1.725,-0.221,2.481
179.118,0.047,-0.015,-1.022,-1.496,1.092,3.099
179.133,0.058,-0.017,-1.022,-1.336,1.908,4.527
179.149,0.051,-0.01,-1.026,-1.603,1.053,6.069
179.163,0.046,-0.007,-1.028,-1.458,1.901,5.702
179.178,0.051,-0.016,-1.025,-1.382,2.221,4.122
179.194,0.052,-0.011,-1.026,-1.145,2.557,4.725
179.209,0.05,-0.015,-1.022,-0.992,1.947,4.916
179.225,0.052,-0.012,-1.027,-1.145,2.473,5.878
179.239,0.049,-0.012,-1.03,-0.969,2.229,7.229
179.254,0.057,-0.009,-1.032,-1.374,1.87,8.435
179.270,0.049,-0.012,-1.025,-1.626,1.969,10.351
179.285,0.048,-0.013,-1.024,-1.534,2.847,12.076
179.300,0.043,-0.012,-1.032,-1.74,2.611,13.282
179.315,0.052,-0.015,-1.027,-1.374,3.237,15.374
179.330,0.05,-0.011,-1.029,-1.496,3.947,16.664
179.345,0.053,-0.011,-1.028,-1.374,4.382,16.359
179.361,0.053,-0.012,-1.028,-1.481,3.855,17.023
179.376,0.061,-0.02,-1.03,-1.443,3.336,18.023
179.391,0.066,-0.016,-1.028,-1.565,3.901,20.183
179.406,0.068,-0.011,-1.025,-1.557,3.458,22.29
179.421,0.049,-0.011,-1.017,-1.42,4.176,21.588
179.437,0.056,-0.008,-1.021,-1.427,3.565,19.527
179.452,0.053,-0.013,-1.021,-1.565,3.565,18.939
179.467,0.049,-0.011,-1.03,-1.366,2.931,18.336
179.483,0.049,-0.013,-1.034,-1.763,2.389,19.328
179.497,0.048,-0.014,-1.024,-1.817,2.198,19.489
179.512,0.054,-0.018,-1.027,-2.015,1.45,20.786
179.528,0.06,-0.018,-1.023,-1.962,2.221,21.198
179.543,0.045,-0.005,-1.028,-1.595,2.26,18.924
179.558,0.035,-0.007,-1.021,-1.618,3.031,14.855
179.574,0.042,-0.012,-1.036,-1.389,3.313,11.786
179.588,0.046,-0.017,-1.023,-1.145,3.0,9.878
179.603,0.052,-0.016,-1.028,-1.206,2.71,10.328
179.619,0.052,-0.008,-1.023,-1.366,1.878,10.588
179.634,0.049,-0.016,-1.027,-1.389,1.702,10.527
179.650,0.049,-0.011,-1.025,-1.122,2.542,9.145
179.664,0.05,-0.015,-1.025,-1.137,2.702,7.824
179.679,0.05,-0.014,-1.024,-1.405,2.351,7.221
179.695,0.05,-0.013,-1.021,-1.229,1.779,6.931
179.710,0.05,-0.008,-1.026,-1.229,1.458,6.649
179.725,0.042,-0.012,-1.023,-1.244,1.504,6.198
179.740,0.056,-0.016,-1.024,-1.45,1.244,6.969
179.755,0.051,-0.01,-1.02,-1.679,1.015,6.351
179.770,0.046,-0.009,-1.026,-1.427,1.985,5.496
179.786,0.042,-0.011,-1.024,-1.206,2.29,3.824
179.800,0.044,-0.007,-1.022,-1.183,2.748,2.313
179.815,0.045,-0.013,-1.021,-0.885,3.29,0.885
179.831,0.047,-0.016,-1.024,-0.901,4.229,-0.672
179.846,0.051,-0.013,-1.018,-0.611,4.985,-1.137
179.861,0.052,-0.009,-1.019,-0.74,4.405,-1.695
179.876,0.052,-0.015,-1.024,-0.779,4.023,-2.252
179.891,0.051,-0.014,-1.027,-1.031,3.771,-2.321
179.907,0.055,-0.015,-1.028,-0.786,3.427,-1.969
179.922,0.056,-0.013,-1.022,-0.595,3.489,-2.122
179.936,0.057,-0.013,-1.018,-0.687,3.191,-2.901
179.952,0.053,-0.016,-1.025,-0.672,3.466,-3.634
179.967,0.062,-0.012,-1.022,-0.42,2.855,-4.458
179.982,0.051,-0.016,-1.031,-0.366,2.924,-5.756
179.998,0.05,-0.016,-1.023,-0.588,4.053,-6.565
180.012,0.052,-0.014,-1.019,-0.672,3.885,-6.855
180.027,0.054,-0.019,-1.034,-0.374,5.061,-7.634
180.043,0.06,-0.02,-1.03,-0.107,4.595,-8.618
180.058,0.063,-0.014,-1.026,-0.427,3.344,-9.847
180.073,0.071,-0.008,-1.02,-0.412,3.489,-11.878
180.088,0.071,-0.017,-1.02,-0.198,3.656,-15.344
180.103,0.066,-0.018,-1.023,0.084,4.137,-19.061
180.118,0.062,-0.022,-1.027,0.511,4.786,-23.779
180.134,0.058,-0.025,-1.024,0.931,5.595,-27.664
180.149,0.044,-0.028,-1.026,1.252,5.863,-29.023
180.165,0.051,-0.025,-1.025,1.092,5.771,-30.977
180.179,0.053,-0.017,-1.029,0.947,4.962,-31.733
180.194,0.043,-0.016,-1.03,0.672,3.595,-31.649
180.210,0.053,-0.012,-1.028,0.496,2.206,-30.511
180.225,0.059,-0.015,-1.019,0.26,2.779,-30.809
180.240,0.058,-0.014,-1.024,0.107,2.397,-30.321
180.255,0.056,-0.011,-1.017,0.076,2.641,-29.992
180.270,0.051,-0.011,-1.026,0.679,3.244,-30.176
180.285,0.04,-0.014,-1.017,0.969,2.985,-30.985
180.301,0.05,-0.018,-1.029,0.527,2.855,-30.969
180.316,0.068,-0.017,-1.027,0.87,3.023,-32.405
180.331,0.051,-0.02,-1.024,0.931,2.099,-34.366
180.346,0.049,-0.019,-1.024,0.824,2.45,-36.137
180.361,0.047,-0.014,-1.031,0.656,1.511,-35.0
180.377,0.05,-0.009,-1.032,0.405,0.985,-33.939
180.392,0.039,-0.01,-1.021,0.473,1.275,-33.748
180.407,0.05,-0.015,-1.023,0.397,0.45,-34.099
180.422,0.056,-0.018,-1.023,0.176,0.366,-32.779
180.437,0.063,-0.011,-1.034,0.015,0.099,-31.397
180.452,0.056,-0.009,-1.025,0.053,1.939,-29.244
180.468,0.062,-0.016,-1.024,-0.115,1.344,-28.397
180.483,0.048,-0.016,-1.024,-0.16,1.824,-26.267
180.498,0.046,-0.009,-1.025,0.191,2.832,-23.344
180.513,0.053,-0.012,-1.019,-0.221,2.603,-21.397
180.528,0.06,-0.007,-1.024,-0.16,2.137,-19.817
180.543,0.06,-0.01,-1.02,-0.13,2.626,-17.489
180.559,0.058,-0.017,-1.025,0.153,3.282,-15.84
180.574,0.056,-0.013,-1.023,-0.435,3.084,-14.359
180.589,0.055,-0.009,-1.026,-0.198,3.817,-12.435
180.604,0.06,-0.015,-1.026,-0.489,3.382,-10.573
180.619,0.057,-0.015,-1.023,-0.473,2.931,-9.351
180.635,0.063,-0.018,-1.019,-0.947,2.74,-9.069
180.650,0.062,-0.013,-1.021,-0.916,2.672,-8.489
180.665,0.063,-0.02,-1.025,-0.725,3.023,-7.687
180.680,0.062,-0.02,-1.025,-0.725,3.504,-6.359
180.695,0.056,-0.016,-1.024,-0.847,2.969,-5.718
180.710,0.059,-0.016,-1.032,-0.779,2.481,-4.679
180.726,0.059,-0.013,-1.027,-0.832,2.145,-3.183
180.740,0.057,-0.01,-1.02,-1.099,1.817,-1.183
180.755,0.056,-0.014,-1.026,-0.977,2.351,-0.13
180.771,0.058,-0.016,-1.026,-1.183,1.55,0.557
180.786,0.057,-0.018,-1.025,-1.122,1.847,1.42
180.802,0.061,-0.017,-1.025,-1.374,0.687,2.26
180.816,0.055,-0.012,-1.025,-1.542,0.45,3.481
180.831,0.051,-0.016,-1.024,-1.557,1.221,4.656
180.847,0.06,-0.017,-1.026,-1.443,1.115,5.29
180.862,0.053,-0.015,-1.025,-1.733,1.145,6.55
180.876,0.049,-0.011,-1.024,-1.649,0.84,6.229
180.892,0.051,-0.013,-1.029,-1.42,1.565,6.489
180.907,0.054,-0.02,-1.021,-1.458,0.969,7.313
180.922,0.051,-0.015,-1.024,-1.664,1.046,9.328
180.938,0.047,-0.014,-1.022,-1.473,1.855,10.305
180.952,0.053,-0.01,-1.026,-1.603,1.74,9.649
180.967,0.053,-0.01,-1.027,-1.588,1.359,10.176
180.983,0.046,-0.012,-1.027,-1.557,1.802,11.092
180.998,0.052,-0.009,-1.02,-1.321,3.359,11.855
181.013,0.048,-0.014,-1.032,-1.42,3.107,12.504
181.028,0.051,-0.011,-1.026,-1.55,2.26,12.176
181.043,0.055,-0.015,-1.03,-1.435,1.969,12.832
181.059,0.048,-0.013,-1.025,-1.679,1.924,14.779
181.074,0.054,-0.019,-1.029,-1.824,1.252,17.84
181.089,0.055,-0.008,-1.025,-1.893,0.809,23.084
181.105,0.05,-0.014,-1.022,-1.893,2.947,28.214
181.119,0.054,-0.013,-1.033,-1.519,3.321,26.985
181.134,0.047,-0.001,-1.022,-1.756,3.183,24.252
181.150,0.05,-0.002,-1.028,-1.534,2.802,20.527
181.165,0.056,-0.008,-1.021,-1.496,2.924,17.824
181.180,0.047,-0.013,-1.027,-1.679,3.16,15.893
181.196,0.051,-0.012,-1.022,-1.42,3.031,14.855
181.210,0.052,-0.023,-1.026,-1.282,2.725,15.137
181.225,0.057,-0.02,-1.029,-1.229,2.45,17.099
181.241,0.056,-0.017,-1.022,-1.45,3.427,18.863
181.256,0.054,-0.013,-1.026,-1.542,3.611,19.565
181.272,0.051,-0.011,-1.028,-1.366,4.168,19.183
181.287,0.049,-0.012,-1.031,-1.229,4.321,18.176
181.301,0.049,-0.008,-1.027,-1.0,4.664,17.985
181.317,0.057,-0.014,-1.021,-1.481,3.763,18.603
181.332,0.065,-0.026,-1.018,-1.55,3.153,21.313
181.347,0.057,-0.02,-1.029,-1.534,3.779,25.237
181.363,0.048,-0.005,-1.026,-1.603,2.954,25.137
181.378,0.044,-0.005,-1.019,-1.702,4.168,24.221
181.392,0.056,-0.006,-1.032,-1.282,3.802,21.191
181.408,0.046,-0.004,-1.022,-1.542,3.405,18.229
181.423,0.05,-0.008,-1.025,-1.557,2.908,15.29
181.438,0.058,-0.012,-1.026,-1.244,2.992,13.733
181.454,0.05,-0.014,-1.028,-1.542,2.634,13.305
181.469,0.048,-0.012,-1.03,-1.473,2.626,12.053
181.483,0.043,-0.009,-1.021,-1.405,3.519,10.947
181.499,0.051,-0.009,-1.026,-1.099,3.74,8.924
181.514,0.049,-0.016,-1.018,-1.015,3.649,7.176
181.530,0.048,-0.015,-1.03,-0.947,3.626,5.649
181.545,0.052,-0.012,-1.02,-1.076,3.557,4.153
181.559,0.05,-0.012,-1.026,-0.634,4.374,2.847
181.575,0.056,-0.012,-1.03,-0.977,4.443,1.878
181.590,0.051,-0.014,-1.026,-0.672,4.481,0.939
181.605,0.054,-0.015,-1.029,-0.718,4.351,0.427
181.620,0.052,-0.015,-1.017,-0.565,3.748,0.015
181.635,0.057,-0.012,-1.025,-0.832,3.221,0.008
181.650,0.052,-0.013,-1.024,-0.817,3.366,0.13
181.666,0.055,-0.013,-1.027,-0.618,3.328,-0.031
181.680,0.059,-0.014,-1.023,-0.832,2.87,-0.26
181.695,0.057,-0.013,-1.021,-1.053,2.847,-0.389
181.711,0.053,-0.011,-1.027,-0.588,2.962,-0.824
181.726,0.051,-0.013,-1.03,-0.916,2.45,-1.656
181.742,0.054,-0.011,-1.028,-0.511,2.924,-2.71
181.756,0.049,-0.016,-1.029,-0.221,3.84,-4.58
181.771,0.053,-0.015,-1.027,-0.214,3.588,-6.443
181.787,0.049,-0.009,-1.019,0.168,4.725,-8.763
181.802,0.053,-0.015,-1.024,0.038,3.679,-10.969
181.817,0.062,-0.011,-1.023,-0.779,2.198,-11.321
181.832,0.063,-0.014,-1.03,-0.595,2.336,-11.137
181.847,0.057,-0.014,-1.024,-0.366,2.985,-10.58
181.862,0.062,-0.018,-1.033,-0.198,3.977,-10.076
181.878,0.059,-0.018,-1.025,-0.328,3.214,-9.214
181.893,0.056,-0.018,-1.032,-0.573,3.374,-9.695
181.907,0.057,-0.014,-1.024,-0.115,3.656,-9.931
181.923,0.055,-0.009,-1.018,-0.282,4.053,-11.298
181.938,0.059,-0.016,-1.023,-0.069,4.481,-12.679
181.954,0.058,-0.015,-1.021,0.031,4.198,-13.092
181.969,0.062,-0.01,-1.024,-0.092,3.557,-12.969
181.984,0.058,-0.015,-1.026,0.023,3.366,-12.26
181.999,0.06,-0.015,-1.025,-0.374,1.634,-11.893
182.014,0.055,-0.012,-1.023,-0.473,2.214,-11.779
182.029,0.06,-0.012,-1.022,-0.313,2.305,-10.832
182.045,0.054,-0.013,-1.022,-0.58,2.076,-11.351
182.060,0.064,-0.02,-1.021,-0.557,2.267,-11.656
182.075,0.065,-0.017,-1.017,-0.763,2.076,-11.153
182.090,0.057,-0.015,-1.03,-0.664,2.244,-9.878
182.105,0.063,-0.013,-1.024,-0.641,1.847,-8.214
182.120,0.062,-0.016,-1.026,-0.855,1.183,-6.832
182.136,0.063,-0.021,-1.023,-0.962,1.954,-4.847
182.151,0.066,-0.015,-1.025,-1.069,1.954,-2.794
182.165,0.061,-0.011,-1.021,-1.053,2.038,-1.733
182.181,0.059,-0.014,-1.026,-0.847,2.298,-0.794
182.196,0.054,-0.015,-1.03,-1.13,1.947,-0.099
182.212,0.062,-0.013,-1.023,-1.153,1.985,0.313
182.226,0.059,-0.014,-1.023,-1.015,2.565,0.527
182.241,0.058,-0.01,-1.03,-1.038,2.618,0.504
182.257,0.054,-0.012,-1.03,-0.947,2.847,0.534
182.272,0.059,-0.017,-1.027,-0.794,2.802,0.557
182.287,0.059,-0.01,-1.024,-1.038,2.939,0.481
182.302,0.053,-0.018,-1.021,-0.947,2.626,0.275
182.317,0.057,-0.014,-1.025,-1.084,2.71,0.382
182.332,0.056,-0.014,-1.027,-1.015,3.046,-0.115
182.348,0.061,-0.014,-1.025,-1.13,3.183,-0.145
182.362,0.059,-0.016,-1.031,-1.153,3.122,-0.214
182.377,0.055,-0.01,-1.023,-1.038,3.13,-0.466
182.393,0.058,-0.011,-1.022,-0.748,3.435,-1.015
182.408,0.056,-0.02,-1.024,-0.702,3.763,-1.794
182.424,0.06,-0.013,-1.021,-0.534,3.282,-4.084
182.438,0.057,-0.015,-1.028,-0.336,3.374,-5.74
182.453,0.052,-0.011,-1.021,-0.588,3.031,-7.458
182.469,0.051,-0.012,-1.026,-0.458,3.137,-10.771
182.484,0.052,-0.011,-1.032,-0.74,2.313,-12.229
182.499,0.054,-0.009,-1.02,-0.786,1.359,-13.55
182.514,0.06,-0.011,-1.024,-0.565,1.702,-12.374
182.529,0.058,-0.013,-1.024,-0.565,1.924,-11.344
182.544,0.06,-0.024,-1.029,-0.634,2.588,-11.099
182.560,0.057,-0.016,-1.02,-0.527,2.153,-10.084
182.575,0.062,-0.017,-1.029,-0.779,1.702,-9.573
182.589,0.054,-0.012,-1.026,-0.832,2.542,-8.832
182.605,0.055,-0.012,-1.028,-0.74,2.817,-8.053
182.620,0.053,-0.011,-1.022,-0.557,2.71,-8.573
182.635,0.064,-0.016,-1.019,-0.656,2.153,-8.214
182.651,0.062,-0.012,-1.021,-0.557,2.321,-6.641
182.665,0.062,-0.021,-1.027,-0.695,2.504,-4.817
182.681,0.061,-0.015,-1.021,-0.985,2.107,-3.115
182.696,0.062,-0.018,-1.025,-1.168,1.519,-0.817
182.711,0.06,-0.012,-1.028,-1.427,0.412,0.901
182.727,0.063,-0.019,-1.027,-1.351,-0.893,2.534
182.741,0.066,-0.016,-1.028,-1.534,-1.45,5.313
182.756,0.07,-0.023,-1.014,-1.748,-0.695,9.13
182.772,0.074,-0.026,-1.024,-2.771,-0.908,15.641
182.787,0.048,-0.007,-1.018,-2.13,1.031,17.71
182.802,0.041,-0.007,-1.021,-1.298,4.099,16.725
182.817,0.048,-0.012,-1.022,-0.817,5.252,14.405
182.832,0.043,-0.01,-1.029,-0.763,4.687,12.435
182.847,0.043,-0.01,-1.026,-0.756,5.252,8.824
182.863,0.046,-0.008,-1.026,-0.626,4.847,6.542
182.878,0.048,-0.005,-1.032,-0.565,4.969,4.191
182.893,0.049,-0.004,-1.031,-0.595,4.954,2.244
182.908,0.047,-0.009,-1.021,-0.16,4.679,0.046
182.923,0.032,-0.011,-1.032,0.084,4.924,-2.374
182.939,0.011,0.001,-1.031,0.809,4.992,-10.672
182.953,0.017,-0.007,-1.01,-1.099,0.26,-20.656
182.968,0.074,-0.007,-1.018,-0.969,0.74,-20.313
182.984,0.074,-0.005,-1.024,-0.282,2.214,-17.954
182.999,0.055,-0.006,-1.028,-0.13,2.405,-17.573
183.014,0.055,-0.014,-1.028,-0.023,3.046,-18.122
183.030,0.06,-0.016,-1.018,0.069,3.947,-17.115
183.044,0.067,-0.02,-1.026,-0.244,2.985,-14.794
183.059,0.067,-0.018,-1.026,-0.244,3.069,-11.847
183.075,0.063,-0.019,-1.027,-0.344,3.634,-9.641
183.090,0.058,-0.01,-1.029,-0.366,3.389,-9.145
183.106,0.054,-0.017,-1.025,-0.221,3.802,-9.244
183.120,0.058,-0.013,-1.026,-0.305,3.618,-9.374
183.135,0.06,-0.021,-1.024,-0.198,3.489,-9.687
183.151,0.071,-0.021,-1.022,-0.611,3.092,-8.16
183.166,0.072,-0.019,-1.03,-0.595,3.115,-5.58
183.181,0.072,-0.017,-1.021,-0.74,2.641,-2.618
183.196,0.077,-0.019,-1.028,-1.366,-0.473,-0.405
183.211,0.054,-0.013,-1.024,-2.168,-1.794,0.824
183.226,0.058,-0.013,-1.026,-2.069,-2.16,1.427
183.242,0.055,-0.019,-1.027,-1.74,-1.687,1.573
183.256,0.049,-0.015,-1.022,-1.969,-1.664,2.008
183.271,0.028,-0.019,-1.027,-1.115,2.634,1.0
183.287,0.054,-0.013,-1.051,-0.603,4.985,0.435
183.302,0.067,-0.014,-1.027,-1.069,2.412,0.542
183.317,0.056,-0.012,-1.031,-0.779,3.191,0.397
183.332,0.057,-0.016,-1.022,-0.389,4.42,0.603
183.347,0.049,-0.015,-1.015,-0.756,4.137,1.191
183.363,0.063,-0.021,-1.028,-0.153,5.412,2.214
183.378,0.075,-0.026,-1.034,0.504,6.328,5.252
183.392,0.08,-0.021,-1.028,1.008,8.542,10.16
183.408,0.056,-0.008,-1.021,1.366,10.947,12.176
183.423,0.057,-0.007,-1.044,4.16,12.214,10.756
183.438,0.064,0.0,-1.062,8.466,12.389,8.557
183.454,0.041,-0.006,-1.073,13.863,2.237,4.0
183.469,0.045,-0.019,-1.033,16.015,-11.237,-1.351
183.484,0.05,-0.022,-1.026,14.427,-14.015,-3.496
183.499,0.068,-0.03,-1.032,14.206,-9.046,-1.954
183.514,0.074,-0.037,-1.024,14.71,-1.634,2.611
183.529,0.052,-0.042,-1.039,16.344,4.092,4.473
183.545,0.05,-0.057,-1.05,18.855,7.359,3.962
183.560,0.048,-0.055,-1.06,22.656,6.382,2.855
183.576,0.05,-0.056,-1.063,27.015,1.511,0.992
183.590,0.049,-0.064,-1.045,31.71,3.893,0.626
183.605,0.09,-0.073,-0.995,31.122,19.183,4.992
183.621,0.073,-0.079,-0.991,26.802,20.382,8.389
183.636,0.045,-0.091,-0.986,22.947,18.053,7.389
183.651,0.062,-0.097,-1.005,20.542,13.84,5.725
183.667,0.068,-0.098,-0.997,18.107,13.58,5.718
183.682,0.079,-0.108,-1.018,16.794,17.137,6.176
183.696,0.092,-0.131,-1.002,16.168,14.969,6.832
183.712,0.093,-0.115,-1.01,15.29,9.42,6.282
183.727,0.078,-0.114,-1.011,15.069,5.603,5.71
183.742,0.062,-0.122,-1.011,15.084,4.435,3.427
183.758,0.079,-0.129,-0.999,14.076,1.779,2.145
183.773,0.083,-0.144,-1.003,12.16,0.336,1.565
183.789,0.06,-0.149,-1.022,12.252,4.145,0.611
183.803,0.081,-0.151,-1.005,11.817,8.656,-0.038
183.818,0.085,-0.15,-1.015,11.649,7.55,0.458
183.834,0.077,-0.152,-1.03,12.893,8.229,0.321
183.849,0.085,-0.149,-1.014,14.344,6.511,0.023
183.864,0.101,-0.154,-1.004,14.786,2.26,0.16
183.879,0.101,-0.154,-1.012,14.412,-0.153,1.58
183.894,0.088,-0.166,-1.008,13.092,4.802,3.496
183.909,0.082,-0.167,-0.998,11.55,11.695,4.328
183.925,0.083,-0.17,-1.006,10.695,10.618,3.565
183.940,0.075,-0.179,-1.007,10.588,9.969,2.366
183.955,0.093,-0.18,-0.994,9.58,10.405,1.626
183.971,0.097,-0.183,-0.99,8.252,5.382,0.931
183.985,0.086,-0.188,-1.0,7.664,2.855,-0.061
184.000,0.096,-0.192,-1.0,6.687,0.878,-1.092
184.016,0.087,-0.188,-0.997,5.55,1.679,-0.725
184.031,0.087,-0.187,-1.002,4.557,3.618,-1.13
184.046,0.093,-0.191,-0.994,2.885,7.29,-0.74
184.061,0.106,-0.194,-0.98,0.87,6.611,-0.13
184.076,0.102,-0.189,-0.985,-1.038,4.832,1.252
184.092,0.095,-0.187,-0.999,-1.58,2.267,1.618
184.106,0.084,-0.19,-1.021,-0.374,1.496,0.412
184.121,0.104,-0.19,-1.007,1.29,2.672,0.229
184.137,0.102,-0.197,-0.993,0.931,-1.649,1.031
184.152,0.088,-0.195,-1.013,0.687,0.046,1.206
184.167,0.09,-0.193,-1.02,1.107,6.145,2.099
184.182,0.101,-0.19,-1.015,2.634,7.618,2.733
184.197,0.093,-0.194,-1.021,4.397,6.588,2.595
184.212,0.099,-0.195,-1.001,5.679,3.763,2.527
184.228,0.098,-0.202,-0.995,5.595,1.832,2.534
184.243,0.098,-0.196,-1.006,5.55,0.809,2.359
184.258,0.094,-0.203,-0.998,5.046,0.664,2.176
184.273,0.097,-0.205,-0.999,4.305,0.634,2.534
184.288,0.098,-0.206,-0.996,3.748,1.168,2.687
184.304,0.091,-0.205,-0.997,3.26,0.298,2.595
184.318,0.088,-0.203,-0.999,2.931,1.122,2.046
184.333,0.096,-0.21,-1.013,3.565,0.725,1.626
184.349,0.084,-0.208,-1.002,4.046,1.0,1.076
184.364,0.094,-0.213,-1.002,3.939,-0.344,0.565
184.378,0.091,-0.212,-0.997,3.427,-1.534,0.718
184.394,0.087,-0.212,-1.001,3.58,-0.794,0.237
184.409,0.088,-0.212,-1.0,3.496,1.038,0.603
184.424,0.084,-0.218,-0.984,2.344,5.031,0.588
184.440,0.088,-0.222,-0.978,-0.061,5.634,0.412
184.454,0.09,-0.219,-0.975,-2.756,4.954,-0.061
184.469,0.089,-0.218,-0.979,-4.137,2.779,-0.725
184.485,0.091,-0.219,-0.98,-6.13,1.618,-1.359
184.500,0.094,-0.218,-0.98,-8.916,0.847,-1.26
184.515,0.096,-0.209,-0.983,-11.046,0.557,-0.84
184.530,0.09,-0.21,-0.992,-12.275,0.061,-0.359
184.545,0.087,-0.205,-0.993,-14.069,0.542,-0.038
184.561,0.094,-0.204,-0.991,-16.183,0.55,0.702
184.576,0.087,-0.198,-0.994,-18.191,0.542,0.992
184.591,0.09,-0.193,-1.005,-18.924,0.206,0.725
184.606,0.094,-0.185,-1.006,-18.641,-2.42,0.924
184.621,0.083,-0.178,-1.004,-18.351,-5.221,1.053
184.636,0.082,-0.18,-1.007,-19.107,-3.794,1.191
184.652,0.074,-0.173,-1.003,-19.885,-6.519,1.099
184.667,0.092,-0.167,-1.005,-21.817,-1.046,2.137
184.682,0.085,-0.163,-1.004,-21.992,-3.725,2.618
184.697,0.06,-0.15,-1.006,-22.809,-1.053,1.954
184.712,0.072,-0.148,-1.016,-23.374,2.832,1.534
184.728,0.069,-0.141,-1.016,-22.962,3.015,1.198
184.743,0.078,-0.135,-1.015,-22.702,5.397,1.267
184.758,0.063,-0.127,-1.024,-21.74,4.641,0.206
184.774,0.075,-0.127,-1.021,-20.496,2.977,-0.924
184.788,0.073,-0.127,-1.02,-20.16,0.641,-1.282
184.803,0.068,-0.113,-1.028,-18.412,0.679,-2.168
184.819,0.074,-0.112,-1.04,-15.962,1.931,-2.26
184.834,0.076,-0.108,-1.02,-14.702,2.145,-2.282
184.849,0.08,-0.104,-1.007,-14.962,1.29,-1.29
184.865,0.075,-0.106,-1.005,-16.748,1.802,-1.809
184.879,0.071,-0.102,-1.007,-18.58,1.954,-2.237
184.894,0.084,-0.089,-1.011,-19.588,-0.763,-2.519
184.910,0.084,-0.088,-1.021,-20.107,-0.267,-1.435
184.925,0.077,-0.083,-1.017,-20.252,2.336,0.092
184.941,0.081,-0.072,-1.018,-20.473,3.565,1.282
184.956,0.075,-0.065,-1.028,-19.664,2.26,1.267
184.970,0.063,-0.064,-1.036,-18.076,0.695,0.656
184.986,0.064,-0.064,-1.024,-16.931,1.931,-0.321
185.001,0.082,-0.055,-1.032,-16.214,-2.336,-0.038
185.016,0.071,-0.055,-1.033,-15.534,-0.626,0.573
185.032,0.067,-0.046,-1.05,-13.107,-4.511,0.595
185.047,0.065,-0.044,-1.054,-9.29,-8.885,-0.565
185.061,0.066,-0.04,-1.06,-5.771,-9.481,-0.733
185.077,0.059,-0.043,-1.045,-2.718,-3.985,-0.13
185.092,0.067,-0.045,-1.021,-1.29,0.389,0.672
185.107,0.055,-0.044,-1.02,-1.282,0.115,1.168
185.123,0.054,-0.042,-1.023,-1.855,0.45,0.618
185.137,0.057,-0.043,-1.024,-2.053,0.389,0.382
185.152,0.056,-0.039,-1.021,-2.786,-1.382,-0.084
185.168,0.052,-0.042,-1.027,-3.229,-3.153,-0.206
185.183,0.048,-0.042,-1.023,-3.183,-3.008,-1.328
185.198,0.047,-0.039,-1.033,-2.137,-0.443,-1.328
185.213,0.053,-0.041,-1.017,-1.504,5.237,-0.817
185.228,0.055,-0.042,-1.017,-2.13,4.58,-0.534
185.244,0.051,-0.048,-1.027,-2.351,4.412,-0.389
185.259,0.069,-0.052,-1.035,-2.878,-0.16,-0.053
185.273,0.044,-0.037,-0.996,-4.183,-2.626,0.611
185.289,0.052,-0.039,-1.031,-4.779,-2.527,-0.366
185.304,0.054,-0.038,-1.012,-5.84,-5.626,-0.672
185.319,0.056,-0.04,-1.015,-7.115,-7.145,-0.237
185.335,0.044,-0.032,-1.022,-7.435,-7.328,0.359
185.349,0.037,-0.028,-1.026,-6.771,-4.122,0.489
185.364,0.044,-0.028,-1.024,-5.588,1.053,1.26
185.380,0.048,-0.039,-1.022,-5.16,3.511,2.534
185.395,0.044,-0.031,-1.031,-4.695,3.992,2.908
185.411,0.042,-0.035,-1.028,-3.565,7.84,3.351
185.425,0.034,-0.029,-1.025,-3.672,8.046,2.924
185.440,0.044,-0.032,-1.028,-3.931,4.298,1.939
185.456,0.037,-0.031,-1.007,-3.878,7.595,2.198
185.471,0.018,-0.039,-0.931,-8.26,22.351,2.901
185.486,0.069,-0.021,-1.03,-11.977,31.29,3.382
185.501,0.053,-0.03,-1.017,-17.13,29.702,0.954
185.516,0.022,0.023,-1.065,-3.069,0.527,-1.176
185.531,0.053,-0.017,-1.029,-0.885,3.649,-0.267
185.547,0.061,-0.02,-1.018,-1.328,3.023,-0.16
185.562,0.068,-0.017,-1.027,-1.58,3.099,-0.122
185.576,0.061,-0.014,-1.026,-1.626,2.504,0.198
185.592,0.063,-0.012,-1.025,-1.672,1.87,0.229
185.607,0.063,-0.014,-1.021,-1.939,1.733,0.542
185.622,0.056,-0.015,-1.031,-1.466,1.939,0.595
185.638,0.059,-0.013,-1.028,-1.702,1.366,0.534
185.652,0.059,-0.015,-1.024,-1.748,1.519,0.397
185.668,0.059,-0.017,-1.022,-1.931,1.313,-0.115
185.683,0.065,-0.015,-1.019,-1.809,1.26,0.145
185.698,0.064,-0.017,-1.028,-2.061,0.412,0.328
185.713,0.06,-0.017,-1.034,-1.901,0.595,0.061
185.728,0.062,-0.014,-1.029,-1.672,0.794,0.115
185.743,0.059,-0.016,-1.029,-1.847,0.794,0.389
185.759,0.051,-0.012,-1.02,-1.939,0.305,0.519
185.773,0.059,-0.015,-1.031,-1.679,0.786,0.511
185.788,0.056,-0.011,-1.028,-1.58,1.122,0.595
185.804,0.058,-0.01,-1.03,-1.45,1.748,0.618
185.819,0.056,-0.013,-1.022,-1.221,1.634,0.672
185.834,0.057,-0.014,-1.026,-1.183,1.664,0.924
185.849,0.059,-0.013,-1.027,-0.962,1.962,0.664
185.864,0.052,-0.013,-1.032,-0.962,2.374,0.794
185.880,0.058,-0.012,-1.026,-0.992,2.511,0.687
185.895,0.057,-0.014,-1.022,-0.985,2.534,0.908
185.909,0.059,-0.014,-1.035,-1.023,2.511,0.87
185.925,0.055,-0.012,-1.028,-0.901,2.664,0.763
185.940,0.052,-0.01,-1.018,-0.702,2.672,0.802
185.955,0.057,-0.012,-1.023,-1.008,2.878,0.817
185.971,0.052,-0.01,-1.02,-0.695,2.672,0.74
185.985,0.056,-0.013,-1.021,-0.809,2.962,0.771
186.000,0.057,-0.012,-1.021,-0.893,2.817,0.863
186.016,0.055,-0.013,-1.022,-0.847,2.916,0.595
186.031,0.055,-0.012,-1.017,-1.031,3.084,0.687
186.045,0.052,-0.013,-1.023,-0.901,2.924,0.611
186.061,0.057,-0.011,-1.028,-1.099,2.863,0.748
186.076,0.055,-0.012,-1.026,-0.885,3.008,0.55
186.091,0.055,-0.01,-1.025,-1.076,2.618,0.664
186.106,0.056,-0.016,-1.026,-0.916,3.015,0.458
186.121,0.055,-0.011,-1.024,-1.092,2.939,0.679
186.137,0.057,-0.016,-1.02,-0.977,3.0,0.763
186.152,0.06,-0.011,-1.021,-0.832,3.015,0.725
186.166,0.053,-0.014,-1.022,-1.099,2.695,0.481
186.182,0.058,-0.014,-1.027,-1.092,2.611,0.687
186.197,0.059,-0.016,-1.025,-0.786,2.893,0.58
186.212,0.057,-0.015,-1.023,-0.985,2.885,0.313
186.228,0.059,-0.014,-1.031,-1.237,3.046,0.336
186.242,0.056,-0.015,-1.025,-1.26,2.702,0.427
186.257,0.056,-0.014,-1.028,-0.908,2.748,0.565
186.273,0.058,-0.013,-1.016,-1.351,2.809,0.603
186.288,0.055,-0.013,-1.026,-1.008,2.573,0.511
186.302,0.056,-0.013,-1.026,-1.267,2.763,0.534
186.318,0.056,-0.011,-1.023,-0.939,2.779,0.366
186.333,0.056,-0.015,-1.024,-1.183,2.489,0.389
186.349,0.055,-0.014,-1.022,-1.237,2.71,0.397
186.364,0.054,-0.014,-1.024,-1.145,3.046,0.702
186.378,0.059,-0.012,-1.02,-0.985,2.939,0.527
186.394,0.056,-0.012,-1.024,-0.985,2.779,0.229
186.409,0.058,-0.012,-1.036,-1.053,3.168,0.473
186.424,0.058,-0.016,-1.027,-1.008,2.725,0.374
186.439,0.061,-0.015,-1.024,-0.802,2.55,0.45
186.454,0.052,-0.013,-1.025,-0.87,2.71,0.618
186.469,0.056,-0.011,-1.023,-0.84,2.786,0.573
186.485,0.057,-0.009,-1.025,-0.786,2.687,0.435
186.499,0.059,-0.01,-1.03,-1.137,2.863,0.534
186.514,0.057,-0.012,-1.029,-1.084,2.603,0.511
186.530,0.058,-0.019,-1.028,-1.046,2.679,0.733
186.545,0.062,-0.013,-1.02,-1.008,2.725,0.519
186.560,0.055,-0.011,-1.022,-0.931,2.656,0.626
186.575,0.057,-0.01,-1.025,-0.924,2.634,0.435
186.590,0.058,-0.015,-1.025,-0.87,2.527,0.405
186.606,0.058,-0.013,-1.023,-0.87,2.679,0.466
186.621,0.056,-0.01,-1.021,-1.168,2.534,0.382
186.635,0.06,-0.013,-1.031,-0.954,2.702,0.527
186.651,0.056,-0.016,-1.024,-0.885,2.664,0.611
186.666,0.055,-0.018,-1.03,-0.916,2.809,0.664
186.681,0.061,-0.014,-1.026,-0.786,2.954,0.779
186.696,0.05,-0.015,-1.024,-1.053,2.794,0.626
186.711,0.059,-0.009,-1.029,-0.947,2.832,0.832
186.726,0.055,-0.01,-1.024,-1.099,3.053,0.863
186.742,0.056,-0.014,-1.022,-0.87,2.885,0.618
186.757,0.057,-0.014,-1.023,-0.939,2.771,0.565
186.771,0.058,-0.013,-1.023,-0.924,2.931,0.931
186.787,0.057,-0.013,-1.024,-1.145,2.687,0.656
186.802,0.055,-0.014,-1.021,-0.969,2.672,0.718
186.818,0.054,-0.015,-1.028,-0.725,2.802,0.87
186.832,0.056,-0.015,-1.025,-1.099,2.824,0.756
186.847,0.057,-0.012,-1.023,-0.924,2.832,0.702
186.863,0.054,-0.013,-1.024,-1.015,3.092,0.656
186.878,0.054,-0.014,-1.022,-1.008,3.084,0.366
186.892,0.053,-0.011,-1.024,-1.015,2.84,0.55
186.908,0.059,-0.012,-1.025,-1.0,2.855,0.595
186.923,0.056,-0.009,-1.027,-0.969,2.832,0.496
186.938,0.056,-0.01,-1.02,-0.832,2.733,0.527
186.954,0.054,-0.013,-1.025,-0.985,2.847,0.595
186.968,0.056,-0.012,-1.033,-0.725,2.832,0.527
186.983,0.055,-0.011,-1.026,-0.924,2.87,0.405
186.999,0.055,-0.013,-1.028,-0.779,2.725,0.412
187.014,0.055,-0.011,-1.02,-0.87,3.137,0.473
187.028,0.059,-0.011,-1.028,-0.748,3.344,0.55
187.044,0.056,-0.015,-1.025,-0.489,3.718,0.481
187.059,0.056,-0.015,-1.021,-1.023,2.176,0.412
187.075,0.056,-0.01,-1.022,-1.015,2.084,0.427
187.089,0.058,-0.01,-1.023,-1.0,1.916,0.55
187.104,0.053,-0.016,-1.025,-0.74,2.26,0.504
187.120,0.056,-0.011,-1.028,-0.939,2.435,0.351
187.135,0.056,-0.015,-1.028,-0.947,2.053,0.023
187.149,0.054,-0.01,-1.021,-0.718,2.527,0.183
187.165,0.053,-0.015,-1.019,-0.832,2.344,-0.153
187.180,0.057,-0.013,-1.023,-0.695,2.176,-0.122
187.195,0.061,-0.011,-1.025,-0.702,1.489,-0.145
187.211,0.053,-0.01,-1.025,-0.908,2.237,-0.405
187.225,0.072,-0.016,-1.036,-0.931,-1.214,-0.061
187.240,0.016,-0.021,-1.022,-2.664,-0.84,-0.42
187.256,0.052,-0.013,-1.027,-1.282,1.229,-0.221
187.271,0.051,-0.013,-1.022,-0.679,2.45,-0.214
187.286,0.053,-0.013,-1.03,-0.947,2.176,0.023
187.301,0.052,-0.01,-1.029,-1.229,1.557,-0.282
187.316,0.053,-0.012,-1.022,-1.267,1.672,-0.374
187.332,0.053,-0.011,-1.02,-1.115,1.473,-0.374
187.347,0.048,-0.013,-1.015,-1.153,1.718,-0.55
187.361,0.053,-0.016,-1.028,-1.061,2.45,-0.328
187.377,0.055,-0.01,-1.013,-0.908,2.58,-0.45
187.392,0.051,-0.014,-1.023,-1.061,2.542,-0.023
187.407,0.053,-0.015,-1.02,-0.908,2.664,-0.023
187.423,0.054,-0.015,-1.026,-0.947,3.038,0.206
187.437,0.051,-0.013,-1.026,-1.115,2.519,0.748
187.452,0.049,-0.015,-1.025,-0.794,3.183,0.427
187.468,0.047,-0.013,-1.026,-1.122,3.275,0.588
187.483,0.052,-0.015,-1.031,-0.634,3.634,0.786
187.497,0.054,-0.011,-1.025,-0.763,2.992,0.87
187.513,0.051,-0.013,-1.023,-0.489,3.351,0.573
187.528,0.051,-0.003,-1.02,-0.702,3.45,0.305
187.544,0.052,-0.01,-1.031,-0.863,3.366,0.298
187.558,0.046,-0.012,-1.03,-0.863,3.824,0.099
187.573,0.046,-0.01,-1.025,-0.321,3.992,0.145
187.589,0.048,-0.018,-1.026,-0.374,4.076,-0.214
187.604,0.055,-0.013,-1.02,-0.267,4.489,-0.267
187.619,0.061,-0.018,-1.027,-0.076,4.031,-0.008
187.634,0.052,-0.014,-1.023,-0.321,4.573,-0.366
187.649,0.049,-0.023,-1.027,0.13,5.305,-0.748
187.664,0.052,-0.024,-1.029,0.382,5.198,-1.305
187.680,0.059,-0.013,-1.027,0.198,4.176,-1.489
187.694,0.06,-0.012,-1.022,-0.038,3.565,-1.13
187.709,0.059,-0.021,-1.036,0.725,2.305,-0.313
187.725,0.082,-0.021,-1.038,1.74,0.855,2.366
187.740,0.065,-0.015,-1.045,2.916,-0.275,6.771
187.755,0.075,-0.007,-1.029,4.664,6.107,10.557
187.770,0.046,-0.01,-1.034,5.824,6.649,10.763
187.785,0.086,-0.033,-1.046,8.282,1.779,12.458
187.801,0.02,-0.003,-1.005,8.969,6.214,12.13
187.816,0.035,-0.023,-1.016,6.122,3.916,6.107
187.831,0.058,-0.026,-1.021,4.618,-1.756,3.473
187.846,0.042,-0.029,-1.022,4.824,-0.969,2.099
187.861,0.037,-0.03,-1.02,4.481,-6.626,-0.206
187.876,0.014,-0.03,-1.008,3.13,-3.893,-4.901
187.892,0.024,-0.037,-1.052,3.496,-8.786,-10.008
187.907,0.028,-0.042,-1.073,7.443,-12.55,-13.649
187.921,0.036,-0.035,-1.055,12.863,-8.359,-14.58
187.937,0.061,-0.059,-1.042,17.71,1.794,-10.321
187.952,0.069,-0.069,-1.029,20.405,11.168,-5.237
187.967,0.058,-0.058,-1.035,22.336,18.084,-1.336
187.983,0.058,-0.052,-1.059,25.015,22.656,0.145
187.998,0.036,-0.062,-1.06,27.779,18.366,-1.679
188.014,0.031,-0.077,-1.068,31.427,6.008,-5.809
188.029,0.054,-0.081,-1.06,35.794,-0.397,-7.076
188.043,0.069,-0.058,-1.031,38.405,11.359,-3.427
188.059,0.069,-0.072,-1.024,38.817,22.794,-0.947
188.074,0.068,-0.106,-1.01,37.099,21.733,-1.931
188.089,0.062,-0.104,-1.017,36.099,16.672,-3.71
188.105,0.053,-0.134,-0.991,33.481,18.725,-5.412
188.120,0.072,-0.136,-0.986,30.931,12.031,-7.71
188.135,0.057,-0.144,-1.0,28.939,9.153,-11.267
188.151,0.067,-0.184,-0.982,26.885,4.481,-13.985
188.165,0.088,-0.192,-1.01,24.565,6.634,-14.0
188.180,0.121,-0.159,-1.035,27.847,-2.481,-11.763
188.196,0.12,-0.176,-0.982,26.076,6.565,-6.0
188.211,0.114,-0.188,-0.978,22.237,12.305,-0.527
188.227,0.101,-0.2,-0.989,19.779,11.992,2.076
188.242,0.093,-0.201,-1.007,19.366,8.664,2.443
188.257,0.089,-0.196,-1.008,20.634,5.679,1.908
188.272,0.098,-0.188,-1.021,22.237,6.29,2.214
188.287,0.095,-0.208,-0.993,21.809,14.359,3.038
188.302,0.111,-0.217,-0.985,20.878,16.115,4.099
188.318,0.127,-0.219,-0.99,20.985,11.542,6.733
188.333,0.106,-0.229,-0.984,22.099,6.145,7.221
188.348,0.095,-0.238,-0.992,22.458,8.015,6.969
188.364,0.093,-0.245,-0.99,22.863,9.412,6.366
188.378,0.093,-0.254,-0.985,22.282,10.008,4.733
188.393,0.114,-0.256,-0.976,21.42,9.969,4.511
188.409,0.129,-0.262,-0.968,20.267,4.382,5.504
188.424,0.108,-0.273,-0.969,18.351,1.603,6.672
188.440,0.096,-0.281,-0.968,16.267,0.947,5.588
188.455,0.107,-0.281,-0.961,14.305,0.305,4.802
188.469,0.11,-0.285,-0.96,12.321,-1.366,4.916
188.485,0.093,-0.286,-0.985,12.031,-5.031,3.771
188.500,0.081,-0.296,-0.986,12.901,-1.847,2.916
188.515,0.103,-0.297,-0.979,12.573,2.466,2.74
188.531,0.105,-0.304,-0.963,11.71,2.16,3.985
188.546,0.099,-0.307,-0.963,10.389,1.221,4.107
188.560,0.098,-0.305,-0.967,9.504,0.053,3.718
188.576,0.101,-0.302,-0.973,9.496,-1.542,3.794
188.591,0.092,-0.304,-0.97,9.092,-1.321,3.504
188.606,0.09,-0.307,-0.962,8.748,-2.359,3.435
188.622,0.092,-0.314,-0.955,7.282,-1.511,2.954
188.636,0.084,-0.317,-0.967,6.092,-2.336,2.45
188.651,0.088,-0.32,-0.969,5.687,-2.389,1.87
188.667,0.081,-0.321,-0.971,5.87,-0.557,1.733
188.682,0.085,-0.321,-0.958,4.885,1.863,1.573
188.698,0.085,-0.324,-0.954,3.687,-0.634,1.336
188.712,0.078,-0.323,-0.975,3.046,-0.13,0.55
188.727,0.091,-0.326,-0.963,3.183,2.87,0.198
188.743,0.091,-0.327,-0.959,2.817,3.298,1.069
188.758,0.095,-0.322,-0.964,2.786,1.573,1.382
188.772,0.081,-0.326,-0.968,3.237,1.344,1.824
188.788,0.086,-0.331,-0.965,4.008,1.351,0.855
188.803,0.086,-0.327,-0.965,4.351,0.221,0.794
188.818,0.084,-0.331,-0.962,3.382,0.527,1.267
188.834,0.087,-0.335,-0.957,2.55,0.336,1.328
188.848,0.083,-0.332,-0.963,1.687,2.237,1.534
188.863,0.088,-0.334,-0.952,0.481,2.557,1.679
188.879,0.078,-0.331,-0.959,0.0,0.107,1.534
188.894,0.083,-0.333,-0.976,0.74,-0.038,1.374
188.909,0.072,-0.332,-0.98,1.962,2.16,1.122
188.924,0.074,-0.332,-0.974,2.847,2.351,0.206
188.939,0.081,-0.34,-0.971,3.336,2.45,-0.084
188.955,0.087,-0.339,-0.963,3.336,1.069,-0.176
188.969,0.085,-0.333,-0.963,3.427,0.443,0.328
188.984,0.082,-0.338,-0.965,3.687,1.832,0.725
189.000,0.074,-0.336,-0.967,3.939,3.176,0.55
189.015,0.082,-0.343,-0.96,4.183,2.435,0.237
189.030,0.086,-0.345,-0.956,3.031,1.977,0.908
189.045,0.075,-0.342,-0.965,2.679,1.504,1.221
189.060,0.076,-0.339,-0.964,2.771,3.359,0.603
189.075,0.08,-0.344,-0.963,2.748,3.382,0.939
189.091,0.077,-0.348,-0.961,3.122,3.191,0.916
189.105,0.076,-0.349,-0.966,2.855,1.863,0.443
189.120,0.073,-0.351,-0.958,2.809,1.313,-0.038
189.136,0.077,-0.349,-0.97,3.046,0.824,-0.137
189.151,0.075,-0.352,-0.968,4.366,0.954,-0.382
189.167,0.079,-0.353,-0.957,4.137,2.374,-0.366
189.181,0.083,-0.355,-0.951,3.771,2.29,-0.176
189.196,0.084,-0.359,-0.946,2.863,2.466,0.595
189.212,0.078,-0.357,-0.95,1.191,1.038,0.771
189.227,0.081,-0.354,-0.954,0.595,0.389,0.916
189.241,0.08,-0.358,-0.966,1.237,-1.26,0.74
189.257,0.071,-0.355,-0.961,1.519,-1.366,0.55
189.272,0.075,-0.356,-0.949,0.626,-1.29,0.511
189.287,0.074,-0.358,-0.947,-0.664,-1.137,0.878
189.303,0.072,-0.357,-0.963,-1.29,1.489,0.901
189.317,0.067,-0.356,-0.955,-1.084,2.992,1.107
189.332,0.072,-0.358,-0.956,-1.496,1.802,0.634
189.348,0.07,-0.358,-0.958,-1.595,0.672,0.107
189.363,0.069,-0.355,-0.968,-1.191,1.115,-0.023
189.378,0.073,-0.357,-0.952,-1.008,2.527,0.198
189.393,0.073,-0.359,-0.961,-1.313,2.527,-0.099
189.408,0.072,-0.359,-0.947,-2.214,1.802,0.29
189.424,0.073,-0.36,-0.94,-4.031,2.229,0.496
189.439,0.072,-0.357,-0.937,-6.382,1.092,0.481
189.453,0.082,-0.348,-0.939,-9.137,1.672,0.55
189.469,0.073,-0.35,-0.95,-10.832,1.237,1.282
189.484,0.077,-0.342,-0.948,-12.649,0.153,1.45
189.499,0.073,-0.35,-0.925,-15.252,0.366,2.504
189.515,0.07,-0.349,-0.92,-19.786,1.046,2.405
189.529,0.074,-0.343,-0.927,-24.824,-3.321,3.099
189.544,0.063,-0.331,-0.947,-28.618,-5.084,3.053
189.560,0.056,-0.324,-0.94,-32.26,-4.985,2.244
189.575,0.047,-0.321,-0.948,-35.458,-3.809,1.015
189.590,0.049,-0.312,-0.942,-39.771,-0.168,-0.336
189.606,0.053,-0.302,-0.927,-45.412,-1.771,-1.244
189.620,0.052,-0.296,-0.946,-50.985,-3.13,-2.183
189.636,0.062,-0.275,-0.936,-56.504,-5.092,-2.817
189.651,0.067,-0.253,-0.978,-60.122,-8.374,-1.534
189.666,0.057,-0.235,-0.996,-60.985,-4.443,-0.634
189.682,0.054,-0.213,-0.988,-61.389,-0.84,0.313
189.697,0.045,-0.201,-0.977,-63.901,0.321,1.145
189.712,0.063,-0.207,-1.067,-66.015,-0.252,0.702
189.727,0.054,-0.171,-1.027,-65.748,-15.458,-1.29
189.742,0.068,-0.15,-1.054,-63.115,-17.985,0.962
189.757,0.078,-0.132,-1.043,-57.298,-13.137,6.115
189.773,0.053,-0.092,-1.174,-44.947,-15.985,10.076
189.788,-0.005,-0.079,-1.107,-29.969,-16.947,6.802
189.803,0.009,-0.092,-1.146,-14.908,-15.237,4.137
189.819,0.012,-0.092,-1.065,-2.351,-1.695,6.008
189.834,-0.002,-0.085,-1.01,3.542,17.466,7.649
189.849,0.043,-0.111,-1.021,4.947,25.382,8.427
189.864,0.056,-0.116,-1.016,1.71,12.634,9.45
189.879,0.027,-0.112,-1.004,-1.26,6.557,8.489
189.895,0.031,-0.103,-0.974,-5.214,5.198,8.107
189.910,0.014,-0.1,-0.962,-9.702,16.611,8.221
189.924,0.046,-0.14,-0.956,-16.802,19.42,8.29
189.940,0.032,-0.132,-0.939,-26.076,25.855,9.771
189.955,0.041,-0.102,-0.993,-33.58,28.13,9.153
189.970,0.026,-0.069,-1.073,-34.832,7.954,3.336
189.986,0.006,-0.042,-1.174,-22.969,-18.74,-6.267
190.001,0.006,-0.052,-1.115,-11.481,-23.802,-12.885
190.016,0.04,-0.07,-1.069,-5.435,-23.939,-14.634
190.032,0.05,-0.077,-1.02,-1.565,-12.321,-9.931
190.047,0.043,-0.066,-1.012,2.275,6.527,-4.718
190.062,0.04,-0.072,-1.014,3.298,14.397,-2.115
190.077,0.039,-0.067,-1.022,1.687,7.656,-2.771
190.092,0.031,-0.072,-0.995,-1.29,-0.221,-4.672
190.108,0.05,-0.075,-1.011,-4.153,-3.977,-4.84
190.123,0.042,-0.069,-1.019,-5.366,-4.321,-3.603
190.137,0.041,-0.072,-1.027,-4.817,-2.092,-2.145
190.153,0.041,-0.076,-1.013,-4.382,-0.58,-0.588
190.168,0.033,-0.064,-1.025,-2.443,5.298,0.916
190.183,0.04,-0.065,-1.015,-0.443,15.435,2.847
190.199,0.047,-0.067,-1.051,-0.992,4.969,3.344
190.213,0.043,-0.07,-0.98,-2.71,-1.076,3.168
190.228,0.047,-0.068,-1.036,-6.29,-10.107,3.061
190.244,0.026,-0.069,-1.034,-8.153,-21.443,1.305
190.259,0.01,-0.06,-1.002,-10.29,-23.947,0.71
190.275,0.014,-0.049,-1.051,-11.916,-27.481,-0.069
190.290,0.001,-0.048,-1.059,-12.366,-36.733,-1.527
190.304,-0.008,-0.05,-1.026,-10.977,-32.374,-0.481
190.320,-0.008,-0.054,-1.017,-9.053,-23.282,1.885
190.335,-0.02,-0.042,-1.027,-7.611,-16.366,3.809
190.350,-0.028,-0.042,-1.029,-6.191,-12.473,4.244
190.366,-0.02,-0.044,-1.021,-5.321,-9.817,6.069
190.381,-0.033,-0.042,-1.024,-4.473,-6.183,7.237
190.396,-0.023,-0.044,-1.023,-6.023,-8.802,7.634
190.411,-0.022,-0.054,-1.024,-8.74,-15.664,7.763
190.426,-0.045,-0.051,-1.028,-11.221,-20.794,7.427
190.441,-0.072,-0.033,-1.038,-9.992,-19.481,5.992
190.457,-0.066,-0.032,-1.015,-6.053,-9.237,5.45
190.472,-0.057,-0.031,-1.028,-4.344,-4.412,5.664
190.488,-0.072,-0.028,-1.02,-3.687,-2.267,4.504
190.502,-0.071,-0.022,-1.027,-1.878,-1.664,2.16
190.517,-0.06,-0.033,-1.024,-1.412,-0.916,1.733
190.533,-0.063,-0.031,-1.012,-0.695,2.176,2.137
190.548,-0.066,-0.03,-1.015,2.069,10.336,2.809
190.563,-0.078,-0.028,-1.023,5.427,19.496,2.779
190.578,-0.063,-0.024,-1.019,10.595,34.397,3.45
190.593,-0.052,-0.034,-1.028,12.45,41.664,2.779
190.608,-0.032,-0.043,-1.031,12.489,39.45,1.893
190.624,-0.027,-0.052,-1.026,9.809,31.595,0.534
190.639,-0.013,-0.052,-1.021,7.511,25.649,0.229
190.654,-0.019,-0.053,-1.026,7.725,29.076,0.954
190.670,0.001,-0.045,-1.031,8.458,31.58,1.336
190.684,0.013,-0.05,-1.028,7.221,27.229,0.672
190.699,0.004,-0.052,-1.038,7.031,23.122,-0.16
190.715,0.001,-0.062,-1.025,7.267,23.573,-1.275
190.730,0.021,-0.059,-1.032,8.473,27.191,-1.344
190.746,0.042,-0.053,-1.026,9.382,31.137,0.069
190.761,0.065,-0.056,-1.004,7.275,28.321,1.847
190.775,0.063,-0.069,-1.011,2.771,19.237,3.305
190.791,0.034,-0.068,-1.01,1.237,24.076,4.58
190.806,0.061,-0.067,-1.049,1.71,28.779,5.824
190.821,0.057,-0.073,-1.034,1.473,23.16,5.16
190.837,0.056,-0.083,-1.025,2.076,22.13,4.473
190.851,0.08,-0.07,-1.029,2.137,21.13,4.565
190.866,0.072,-0.06,-1.023,2.084,22.298,4.527
190.882,0.075,-0.062,-1.031,2.672,24.053,4.824
190.897,0.071,-0.08,-1.044,4.389,25.977,4.55
190.912,0.075,-0.076,-1.044,5.496,33.122,4.26
190.928,0.109,-0.08,-1.032,6.565,36.214,5.038
190.942,0.126,-0.082,-1.014,7.298,31.733,6.282
190.958,0.128,-0.089,-1.034,6.969,31.069,8.405
190.973,0.122,-0.081,-1.044,7.595,39.725,10.115
190.988,0.144,-0.08,-1.016,8.481,41.893,10.679
191.004,0.158,-0.093,-1.007,10.534,35.718,11.962
191.019,0.156,-0.1,-1.018,8.985,41.168,13.992
191.034,0.159,-0.111,-1.01,7.046,48.969,15.435
191.050,0.184,-0.099,-1.006,4.649,55.679,17.267
191.064,0.173,-0.099,-0.995,0.374,64.901,17.305
191.079,0.208,-0.104,-0.984,-4.115,69.931,18.061
191.095,0.216,-0.11,-0.966,-4.962,58.313,16.718
191.110,0.204,-0.128,-0.974,-5.198,46.794,12.924
191.125,0.238,-0.116,-0.962,-4.229,36.824,9.939
191.141,0.261,-0.094,-0.993,-1.038,25.534,9.58
191.156,0.245,-0.105,-1.026,0.122,30.443,9.55
191.172,0.251,-0.104,-1.022,-3.901,52.664,10.137
191.186,0.281,-0.093,-1.011,-5.366,65.611,10.718
191.201,0.273,-0.114,-1.006,-3.282,67.725,8.847
191.217,0.297,-0.115,-0.995,-0.84,65.969,6.664
191.232,0.321,-0.11,-0.995,-0.359,68.969,6.771
191.247,0.358,-0.092,-0.942,-0.962,68.183,7.679
191.263,0.371,-0.094,-0.92,-1.901,60.26,8.893
191.277,0.379,-0.096,-0.907,-0.618,46.695,8.061
191.292,0.383,-0.1,-0.906,0.031,31.595,6.985
191.308,0.406,-0.109,-0.906,1.985,12.031,6.748
191.323,0.378,-0.098,-0.942,3.702,1.565,6.573
191.338,0.348,-0.131,-0.976,-0.931,18.023,3.183
191.354,0.397,-0.106,-0.963,-3.29,28.695,4.115
191.368,0.407,-0.102,-0.958,-3.664,34.237,5.153
191.384,0.396,-0.113,-0.957,-2.298,38.038,4.557
191.399,0.391,-0.109,-0.941,-2.099,41.84,3.298
191.414,0.415,-0.113,-0.938,-5.191,51.595,2.496
191.430,0.438,-0.106,-0.923,-5.687,53.901,1.313
191.445,0.459,-0.108,-0.899,-4.145,47.374,0.13
191.459,0.456,-0.117,-0.892,-2.45,37.328,-0.626
191.475,0.455,-0.111,-0.899,-0.13,24.473,-2.069
191.490,0.47,-0.115,-0.897,-0.74,21.893,-1.481
191.505,0.487,-0.104,-0.918,-2.527,26.603,0.756
191.521,0.483,-0.109,-0.923,-2.985,31.679,1.435
191.536,0.482,-0.103,-0.886,-1.183,28.046,0.931
191.550,0.5,-0.115,-0.866,-1.053,20.13,0.244
191.566,0.507,-0.113,-0.865,-2.0,12.374,1.824
191.581,0.508,-0.108,-0.885,-2.473,6.786,2.794
191.597,0.5,-0.111,-0.89,-2.252,5.008,3.359
191.612,0.501,-0.102,-0.883,-3.618,7.634,4.061
191.626,0.504,-0.102,-0.875,-6.824,12.725,4.695
191.642,0.511,-0.103,-0.871,-6.42,8.023,5.359
191.657,0.509,-0.104,-0.889,-4.634,1.969,5.053
191.672,0.505,-0.106,-0.906,-3.916,1.725,5.359
191.688,0.51,-0.097,-0.902,-4.008,4.053,6.603
191.702,0.507,-0.103,-0.904,-4.802,8.389,7.534
191.717,0.513,-0.102,-0.903,-5.504,13.87,8.611
191.733,0.512,-0.102,-0.899,-6.481,17.328,9.038
191.748,0.51,-0.102,-0.887,-5.649,15.244,8.916
191.763,0.504,-0.105,-0.882,-6.061,15.649,9.13
191.779,0.502,-0.101,-0.884,-5.435,12.931,7.87
191.793,0.508,-0.104,-0.881,-3.756,8.565,6.099
191.808,0.53,-0.1,-0.887,-3.626,7.008,6.71
191.824,0.523,-0.104,-0.895,-4.412,12.634,7.13
191.839,0.541,-0.098,-0.903,-4.0,17.168,9.122
191.855,0.543,-0.094,-0.89,-5.443,24.565,12.809
191.869,0.533,-0.109,-0.872,-7.901,30.595,14.412
191.884,0.551,-0.104,-0.866,-10.954,35.87,15.924
191.900,0.554,-0.109,-0.866,-12.13,38.092,17.695
191.915,0.562,-0.113,-0.846,-12.786,37.58,18.725
191.930,0.568,-0.113,-0.849,-14.107,37.87,19.832
191.946,0.565,-0.113,-0.843,-16.687,42.145,20.611
191.961,0.564,-0.094,-0.837,-18.924,42.893,20.092
191.976,0.575,-0.084,-0.786,-16.252,27.305,17.634
191.992,0.568,-0.107,-0.799,-12.168,3.183,13.489
192.007,0.58,-0.098,-0.822,-6.221,-18.29,9.939
192.022,0.578,-0.101,-0.877,-3.122,-20.84,9.908
192.038,0.578,-0.102,-0.88,-4.687,-7.573,11.244
192.052,0.591,-0.103,-0.852,-7.069,2.053,13.489
192.068,0.572,-0.108,-0.833,-9.443,4.74,14.58
192.083,0.572,-0.099,-0.854,-9.664,3.656,14.061
192.098,0.571,-0.104,-0.87,-7.763,5.023,14.008
192.114,0.572,-0.107,-0.849,-6.626,4.977,13.763
192.129,0.57,-0.112,-0.812,-6.687,-1.916,13.252
192.143,0.547,-0.118,-0.819,-8.389,-7.519,11.618
192.159,0.547,-0.115,-0.838,-8.649,-14.366,7.924
192.174,0.553,-0.109,-0.798,-4.84,-35.069,4.015
192.189,0.539,-0.103,-0.794,-1.718,-60.863,1.473
192.205,0.563,-0.094,-0.861,1.985,-85.252,1.473
192.220,0.508,-0.11,-0.937,4.137,-85.366,3.344
192.235,0.496,-0.095,-0.984,1.718,-58.817,7.481
192.250,0.465,-0.107,-0.958,-1.282,-30.008,9.74
192.265,0.462,-0.119,-0.889,-4.718,-16.344,9.244
192.281,0.451,-0.121,-0.917,-6.427,-14.275,6.817
192.296,0.44,-0.111,-0.947,-2.786,-14.595,3.87
192.311,0.455,-0.108,-0.941,0.588,-11.771,1.321
192.327,0.457,-0.116,-0.937,0.023,-2.618,1.763
192.341,0.47,-0.107,-0.948,-0.519,7.847,4.16
192.356,0.486,-0.115,-0.891,-3.992,17.901,7.695
192.372,0.473,-0.111,-0.863,-6.015,13.076,8.504
192.387,0.48,-0.106,-0.841,-4.977,-9.153,6.275
192.402,0.482,-0.118,-0.822,-2.16,-42.687,4.435
192.417,0.443,-0.117,-0.857,-1.198,-67.137,2.321
192.432,0.417,-0.105,-0.979,1.344,-71.015,1.679
192.447,0.398,-0.102,-1.049,1.687,-45.626,3.214
192.463,0.426,-0.099,-1.006,-0.595,-15.328,7.191
192.478,0.398,-0.115,-0.947,-2.679,-0.466,9.603
192.494,0.386,-0.135,-0.947,-4.557,5.107,9.481
192.508,0.391,-0.137,-0.961,-6.305,12.282,8.588
192.523,0.371,-0.131,-0.969,-4.427,16.794,5.122
192.539,0.387,-0.098,-1.007,-0.595,24.496,1.985
192.554,0.394,-0.109,-1.003,0.313,42.565,1.344
192.569,0.448,-0.115,-0.972,-2.023,64.374,5.832
192.585,0.48,-0.115,-0.905,-6.221,74.252,10.55
192.600,0.498,-0.119,-0.833,-6.794,58.489,14.58
192.614,0.482,-0.153,-0.814,-10.046,42.58,17.435
192.630,0.492,-0.088,-0.869,-14.748,36.313,18.603
192.645,0.494,-0.045,-0.888,-10.45,18.099,17.603
192.660,0.455,-0.114,-0.953,-10.649,24.534,16.595
192.676,0.484,-0.113,-0.945,-12.939,43.802,14.939
192.691,0.475,-0.106,-0.913,-12.076,53.298,11.84
192.707,0.5,-0.094,-0.904,-7.992,52.389,5.855
192.722,0.482,-0.114,-0.905,-2.26,47.389,0.038
192.737,0.528,-0.112,-0.921,2.29,44.649,-2.252
192.753,0.554,-0.098,-0.879,8.313,38.656,-5.863
192.767,0.575,-0.144,-0.792,11.695,30.359,-10.237
192.782,0.538,-0.171,-0.806,6.092,30.412,-9.374
192.798,0.563,-0.153,-0.826,0.87,38.389,-10.267
192.813,0.602,-0.105,-0.861,1.511,37.832,-7.847
192.828,0.613,-0.1,-0.874,5.802,47.443,-9.191
192.844,0.665,-0.085,-0.854,-1.351,73.122,-3.947
192.859,0.71,-0.122,-0.784,3.038,91.13,-10.42
192.873,0.694,-0.137,-0.685,10.076,94.58,-18.305
192.889,0.691,-0.128,-0.76,13.473,81.115,-17.389
192.904,0.664,-0.102,-0.727,15.45,72.656,-14.817
192.920,0.689,-0.121,-0.772,11.87,63.924,-10.817
192.935,0.72,-0.087,-0.718,13.656,59.176,-11.336
192.950,0.707,-0.1,-0.669,13.763,38.496,-12.42
192.966,0.688,-0.093,-0.699,16.481,21.076,-10.344
192.981,0.659,-0.114,-0.775,13.519,8.382,-9.908
192.996,0.649,-0.077,-0.761,9.282,11.763,-9.168
193.012,0.687,-0.13,-0.771,7.924,3.191,-9.595
193.026,0.703,-0.105,-0.722,10.779,-6.74,-9.756
193.041,0.707,-0.086,-0.753,14.405,-1.641,-10.053
193.057,0.698,-0.164,-0.81,10.382,8.412,-9.046
193.072,0.709,-0.14,-0.778,2.16,26.153,-7.45
193.087,0.693,-0.125,-0.745,-1.183,32.321,-11.313
193.103,0.64,-0.119,-0.751,-4.336,17.046,-13.542
193.118,0.633,-0.133,-0.746,-8.489,1.046,-9.527
193.133,0.672,-0.105,-0.762,-8.542,3.969,-4.13
193.148,0.722,-0.125,-0.742,-7.756,20.733,-3.16
193.163,0.785,-0.102,-0.71,-6.198,29.664,-2.137
193.179,0.841,-0.095,-0.693,-3.626,28.573,-7.191
193.194,0.841,-0.109,-0.663,-3.435,27.504,-15.969
193.209,0.807,-0.094,-0.652,-2.023,31.214,-20.298
193.225,0.737,-0.092,-0.666,2.351,29.115,-21.038
193.240,0.729,-0.067,-0.691,4.71,16.656,-16.336
193.254,0.736,-0.078,-0.731,5.153,7.443,-15.397
193.270,0.737,-0.069,-0.745,2.069,10.382,-12.649
193.285,0.747,-0.084,-0.723,-2.519,19.359,-10.374
193.300,0.761,-0.074,-0.693,-3.672,21.794,-8.481
193.316,0.764,-0.093,-0.66,-4.26,24.802,-6.573
193.331,0.765,-0.085,-0.618,-2.237,32.015,-2.092
193.347,0.777,-0.084,-0.603,4.267,33.481,-1.0
193.361,0.785,-0.056,-0.63,11.282,25.939,-2.008
193.376,0.782,-0.074,-0.666,12.519,23.183,-3.015
193.392,0.81,-0.089,-0.676,7.206,19.366,-4.855
193.407,0.811,-0.079,-0.668,1.718,18.26,-6.405
193.422,0.766,-0.093,-0.658,0.74,23.916,-4.466
193.438,0.741,-0.061,-0.63,4.496,30.985,1.611
193.453,0.786,-0.081,-0.613,7.641,35.183,5.916
193.467,0.811,-0.078,-0.604,8.794,31.405,5.229
193.483,0.822,-0.066,-0.59,10.954,23.779,0.924
193.498,0.813,-0.067,-0.604,10.55,21.557,-2.962
193.513,0.814,-0.073,-0.608,8.962,19.794,-5.336
193.529,0.819,-0.077,-0.599,7.344,13.87,-7.321
193.544,0.837,-0.073,-0.579,6.115,12.55,-6.427
193.558,0.812,-0.079,-0.572,5.649,8.359,-6.031
193.574,0.794,-0.064,-0.593,11.183,16.649,-4.084
193.589,0.806,-0.074,-0.622,16.183,15.824,-3.298
193.605,0.802,-0.085,-0.627,14.061,10.282,-2.985
193.620,0.809,-0.102,-0.624,9.588,11.557,-2.679
193.635,0.838,-0.081,-0.611,5.405,12.847,-1.641
193.651,0.858,-0.088,-0.595,3.145,8.115,-4.779
193.665,0.831,-0.088,-0.583,1.802,4.763,-7.74
193.680,0.824,-0.09,-0.577,1.099,8.672,-4.229
193.696,0.839,-0.079,-0.57,4.443,11.092,-3.664
193.711,0.805,-0.085,-0.575,7.038,7.511,-2.908
193.726,0.789,-0.087,-0.579,6.458,3.069,2.183
193.741,0.819,-0.087,-0.589,8.191,1.313,4.374
193.756,0.862,-0.094,-0.587,6.046,0.084,4.298
193.771,0.887,-0.089,-0.584,2.634,-6.847,-0.45
193.787,0.86,-0.089,-0.614,2.511,-8.542,-4.679
193.802,0.845,-0.094,-0.602,1.763,-7.878,-5.321
193.817,0.836,-0.088,-0.592,0.809,-14.45,-6.84
193.832,0.826,-0.082,-0.589,2.412,-24.122,-8.405
193.847,0.822,-0.076,-0.592,3.382,-31.992,-8.771
193.863,0.832,-0.099,-0.599,3.107,-30.519,-5.756
193.878,0.847,-0.089,-0.611,2.0,-23.565,-4.611
193.893,0.861,-0.077,-0.615,2.931,-24.069,-7.168
193.908,0.853,-0.068,-0.63,2.504,-32.573,-11.107
193.923,0.795,-0.101,-0.637,1.122,-45.702,-14.901
193.938,0.737,-0.1,-0.624,1.29,-53.84,-14.443
193.954,0.668,-0.109,-0.614,4.435,-54.221,-6.053
193.969,0.653,-0.081,-0.612,9.626,-49.481,9.076
193.984,0.669,-0.099,-0.633,16.382,-54.931,20.595
194.000,0.724,-0.086,-0.671,20.55,-57.298,29.786
194.015,0.818,-0.125,-0.689,20.794,-54.443,28.824
194.031,0.885,-0.138,-0.708,17.168,-47.725,17.359
194.045,0.853,-0.112,-0.731,13.771,-43.824,1.74
194.060,0.695,-0.142,-0.759,8.366,-43.87,-7.183
194.076,0.587,-0.116,-0.73,3.344,-48.702,0.679
194.091,0.614,-0.11,-0.688,2.962,-60.053,11.672
194.106,0.694,-0.111,-0.683,8.366,-56.557,17.282
194.122,0.716,-0.123,-0.721,19.298,-43.099,14.458
194.137,0.672,-0.11,-0.774,27.901,-29.832,8.466
194.152,0.615,-0.129,-0.81,29.443,-29.198,6.069
194.168,0.606,-0.16,-0.815,28.221,-32.733,6.931
194.182,0.596,-0.161,-0.828,29.863,-34.275,8.954
194.197,0.584,-0.159,-0.83,32.046,-35.71,12.687
194.213,0.581,-0.194,-0.845,32.099,-39.13,16.893
194.228,0.827,-0.208,-1.036,23.435,-46.076,12.389
194.244,0.546,-0.165,-0.895,9.931,-30.168,6.809
194.259,0.631,-0.21,-0.837,14.557,-3.824,16.351
194.274,0.6,-0.213,-0.773,12.397,-11.244,14.084
194.290,0.579,-0.199,-0.772,17.634,-19.611,15.748
194.305,0.582,-0.204,-0.802,19.481,-28.763,14.718
194.320,0.547,-0.202,-0.818,18.374,-37.656,12.931
194.336,0.549,-0.207,-0.811,18.458,-49.115,11.061
194.351,0.557,-0.207,-0.813,20.206,-58.107,8.603
194.365,0.555,-0.244,-0.825,20.267,-59.267,6.802
194.381,0.556,-0.23,-0.853,19.313,-52.015,6.939
194.396,0.502,-0.237,-0.875,16.763,-43.206,6.084
194.411,0.492,-0.24,-0.856,15.924,-40.061,5.13
194.427,0.486,-0.238,-0.863,17.405,-45.069,3.748
194.442,0.492,-0.245,-0.903,20.092,-48.618,3.115
194.458,0.466,-0.256,-0.901,20.817,-42.939,3.649
194.473,0.464,-0.268,-0.868,19.687,-38.168,4.557
194.487,0.456,-0.272,-0.875,18.817,-37.191,4.924
194.503,0.439,-0.283,-0.884,17.534,-34.046,5.16
194.518,0.439,-0.281,-0.899,17.237,-32.817,5.756
194.533,0.426,-0.292,-0.891,16.931,-32.427,6.16
194.549,0.416,-0.303,-0.879,16.763,-33.229,6.481
194.564,0.411,-0.306,-0.886,15.725,-34.053,6.786
194.579,0.406,-0.3,-0.895,15.115,-34.145,7.473
194.595,0.386,-0.302,-0.899,16.26,-35.244,7.634
194.610,0.391,-0.308,-0.885,16.076,-36.588,8.183
194.624,0.374,-0.319,-0.89,16.573,-39.588,8.763
194.640,0.354,-0.324,-0.904,16.084,-39.046,8.664
194.655,0.346,-0.331,-0.885,14.573,-40.443,8.267
194.671,0.349,-0.338,-0.902,13.015,-40.954,8.641
194.686,0.332,-0.331,-0.925,13.687,-41.42,9.282
194.701,0.298,-0.338,-0.957,15.221,-35.397,9.076
194.717,0.291,-0.341,-0.935,15.214,-25.183,8.412
194.732,0.296,-0.351,-0.92,15.267,-21.443,7.87
194.747,0.289,-0.358,-0.908,14.061,-22.16,7.55
194.762,0.287,-0.36,-0.931,14.092,-20.824,7.168
194.777,0.276,-0.363,-0.932,12.893,-14.481,7.649
194.792,0.276,-0.368,-0.902,13.092,-16.344,8.076
194.808,0.256,-0.378,-0.918,11.985,-17.076,7.313
194.823,0.248,-0.373,-0.917,11.763,-15.198,6.214
194.838,0.253,-0.377,-0.938,10.443,-7.336,5.992
194.854,0.257,-0.375,-0.911,9.962,-2.641,5.87
194.869,0.26,-0.385,-0.895,9.214,-7.237,5.061
194.884,0.236,-0.389,-0.915,9.366,-10.695,3.924
194.899,0.238,-0.39,-0.913,8.084,-5.0,2.412
194.914,0.264,-0.39,-0.901,7.435,-5.29,2.931
194.930,0.246,-0.397,-0.921,7.061,-5.756,3.962
194.945,0.242,-0.394,-0.934,6.397,0.649,4.328
194.959,0.245,-0.396,-0.923,7.26,5.847,4.55
194.975,0.248,-0.397,-0.888,7.542,3.427,4.359
194.990,0.233,-0.404,-0.898,6.924,-1.214,3.282
195.005,0.232,-0.4,-0.913,7.092,-0.885,2.038
195.020,0.248,-0.403,-0.917,6.847,0.878,2.71
195.035,0.245,-0.404,-0.904,6.962,0.824,3.252
195.050,0.239,-0.412,-0.917,7.748,-0.412,3.389
195.066,0.233,-0.414,-0.907,7.435,0.748,3.252
195.081,0.244,-0.413,-0.907,6.863,3.282,3.176
195.096,0.238,-0.418,-0.895,5.473,4.122,3.649
195.111,0.238,-0.42,-0.895,5.252,0.313,3.374
195.126,0.231,-0.426,-0.915,4.969,0.756,2.336
195.142,0.23,-0.418,-0.908,5.893,0.099,1.435
195.156,0.235,-0.424,-0.898,5.527,-1.107,1.008
195.171,0.231,-0.42,-0.914,6.344,-2.779,0.053
195.187,0.227,-0.426,-0.916,6.382,0.786,0.244
195.202,0.237,-0.428,-0.906,6.092,2.679,0.267
195.217,0.235,-0.427,-0.901,5.794,2.534,0.496
195.232,0.229,-0.432,-0.886,4.534,4.786,0.626
195.247,0.234,-0.431,-0.889,3.87,3.977,0.13
195.262,0.22,-0.433,-0.9,3.344,3.771,-0.672
195.278,0.23,-0.435,-0.918,4.13,3.282,-1.374
195.292,0.233,-0.434,-0.894,4.71,4.198,-1.733
195.307,0.24,-0.434,-0.891,4.786,2.603,-1.595
195.323,0.235,-0.434,-0.9,4.45,2.748,-1.359
195.338,0.245,-0.437,-0.889,4.13,3.29,-0.557
195.354,0.244,-0.434,-0.886,3.366,2.122,0.511
195.368,0.24,-0.435,-0.9,2.977,2.443,1.237
195.383,0.23,-0.447,-0.904,2.588,3.733,1.145
195.399,0.247,-0.439,-0.887,2.656,1.802,1.359
195.414,0.24,-0.439,-0.889,2.771,-2.183,2.275
195.429,0.233,-0.443,-0.882,2.481,-3.618,1.786
195.444,0.229,-0.447,-0.896,1.756,-5.183,1.382
195.459,0.234,-0.448,-0.889,1.809,-6.901,1.321
195.474,0.23,-0.448,-0.891,0.687,-7.527,1.061
195.490,0.226,-0.449,-0.883,0.489,-10.229,1.718
195.505,0.221,-0.448,-0.891,0.26,-11.992,0.916
195.519,0.218,-0.453,-0.886,0.634,-15.481,0.313
195.535,0.212,-0.449,-0.895,0.13,-16.344,-0.023
195.550,0.21,-0.452,-0.895,-0.069,-16.191,-0.168
195.566,0.207,-0.448,-0.888,0.328,-18.481,-0.313
195.581,0.203,-0.445,-0.887,0.847,-25.885,-0.45
195.595,0.197,-0.448,-0.892,1.237,-32.275,-1.061
195.611,0.188,-0.455,-0.905,0.214,-33.321,-1.061
195.626,0.184,-0.448,-0.886,-1.115,-32.809,-0.176
195.641,0.172,-0.455,-0.901,-3.496,-29.481,1.267
195.657,0.165,-0.442,-0.903,-5.107,-23.092,2.786
195.672,0.155,-0.442,-0.912,-4.183,-23.534,2.985
195.687,0.141,-0.449,-0.914,-4.229,-21.794,2.847
195.702,0.138,-0.444,-0.902,-4.863,-19.817,2.115
195.717,0.147,-0.444,-0.893,-5.55,-25.42,2.198
195.732,0.133,-0.444,-0.91,-6.656,-27.191,2.947
195.748,0.115,-0.44,-0.927,-7.046,-22.359,3.313
195.763,0.118,-0.447,-0.923,-7.504,-18.183,3.534
195.779,0.108,-0.443,-0.919,-8.069,-13.351,3.832
195.794,0.105,-0.441,-0.918,-8.489,-11.405,3.992
195.808,0.108,-0.437,-0.93,-7.366,-14.076,3.802
195.824,0.095,-0.439,-0.929,-6.878,-15.504,3.58
195.839,0.082,-0.437,-0.95,-5.74,-18.13,2.405
195.854,0.078,-0.428,-0.951,-3.336,-18.29,1.481
195.870,0.065,-0.44,-0.941,-1.908,-12.458,1.221
195.885,0.084,-0.428,-0.939,-0.679,-9.519,1.763
195.899,0.081,-0.439,-0.927,-0.595,-10.45,1.847
195.915,0.075,-0.427,-0.93,-0.473,-9.16,2.031
195.930,0.073,-0.435,-0.902,-1.565,-9.427,2.29
195.945,0.067,-0.435,-0.911,-4.221,-6.802,2.687
195.961,0.061,-0.427,-0.923,-5.321,-7.26,1.87
195.975,0.048,-0.432,-0.937,-4.962,-9.221,0.595
195.990,0.053,-0.432,-0.929,-5.45,-13.527,-0.985
196.006,0.05,-0.43,-0.93,-5.771,-13.214,-1.351
196.021,0.05,-0.425,-0.931,-4.901,-6.099,-0.802
196.037,0.053,-0.424,-0.944,-3.832,-3.092,-0.496
196.051,0.049,-0.433,-0.935,-2.565,-6.107,-1.084
196.066,0.041,-0.431,-0.939,-2.588,-10.115,-1.748
196.082,0.039,-0.423,-0.946,-1.58,-13.26,-2.534
196.097,0.037,-0.422,-0.936,-0.267,-13.908,-2.511
196.112,0.041,-0.422,-0.916,-0.298,-10.282,-1.366
196.128,0.042,-0.417,-0.934,-0.74,-8.794,-0.954
196.142,0.045,-0.42,-0.932,-0.45,-8.71,-0.473
196.157,0.036,-0.421,-0.929,-0.779,-8.824,0.397
196.173,0.02,-0.426,-0.934,-0.641,-8.809,0.298
196.188,0.034,-0.421,-0.93,-0.649,-11.412,0.504
196.203,0.04,-0.421,-0.929,-1.557,-17.466,1.542
196.218,0.025,-0.426,-0.932,-2.336,-19.595,2.908
196.233,0.018,-0.425,-0.935,-1.481,-16.405,3.573
196.249,0.015,-0.429,-0.928,-1.191,-15.71,3.794
196.264,-0.002,-0.427,-0.934,-0.786,-14.863,4.305
196.279,-0.009,-0.425,-0.927,0.229,-10.725,4.183
196.295,-0.013,-0.424,-0.918,-0.176,-8.786,3.878
196.309,-0.019,-0.422,-0.915,-0.443,-5.931,3.603
196.324,-0.017,-0.425,-0.934,-0.962,-6.649,2.427
196.340,-0.015,-0.417,-0.951,-1.099,-13.168,1.137
196.355,-0.03,-0.421,-0.926,-0.389,-14.038,0.252
196.370,-0.02,-0.423,-0.916,-0.496,-9.748,0.771
196.385,-0.029,-0.428,-0.909,-1.046,-4.305,1.962
196.400,-0.03,-0.428,-0.923,-1.947,-0.649,2.42
196.415,-0.042,-0.426,-0.927,-1.977,2.099,1.786
196.431,-0.028,-0.419,-0.934,-1.504,2.466,1.038
196.446,-0.03,-0.422,-0.929,-2.557,-2.527,0.031
196.461,-0.036,-0.422,-0.937,-2.878,-5.725,-0.832
196.476,-0.033,-0.423,-0.932,-2.137,-4.366,-0.985
196.491,-0.042,-0.419,-0.925,-1.756,-2.763,-1.137
196.507,-0.043,-0.421,-0.932,-1.076,-1.481,-1.954
196.522,-0.042,-0.423,-0.928,-0.87,-1.458,-2.679
196.536,-0.039,-0.422,-0.926,-1.443,-2.466,-3.069
196.552,-0.042,-0.426,-0.927,-1.588,-0.962,-2.954
196.567,-0.04,-0.421,-0.917,-0.557,4.42,-2.244
196.582,-0.032,-0.425,-0.914,-1.198,3.855,-2.137
196.598,-0.033,-0.425,-0.921,-3.42,-0.351,-1.954
196.612,-0.041,-0.423,-0.929,-3.366,1.046,-2.031
196.627,-0.04,-0.423,-0.931,-2.489,3.26,-2.046
196.643,-0.034,-0.426,-0.933,-2.641,2.565,-1.649
196.658,-0.042,-0.415,-0.937,-3.359,-0.74,-2.427
196.674,-0.041,-0.421,-0.929,-2.237,-1.13,-2.832
196.688,-0.039,-0.417,-0.927,-2.137,-0.55,-3.076
196.703,-0.041,-0.422,-0.921,-2.863,0.473,-3.099
196.719,-0.039,-0.418,-0.932,-3.145,0.359,-3.168
196.734,-0.042,-0.417,-0.935,-2.908,-0.076,-3.962
196.749,-0.041,-0.422,-0.915,-4.679,-1.557,-4.313
196.764,-0.038,-0.417,-0.937,-5.0,-0.405,-4.145
196.779,-0.044,-0.418,-0.938,-3.718,0.756,-4.183
196.794,-0.029,-0.415,-0.93,-4.42,-2.534,-4.053
196.810,-0.036,-0.413,-0.92,-5.496,-3.863,-3.275
196.825,-0.042,-0.416,-0.916,-6.298,-0.557,-2.511
196.839,-0.039,-0.413,-0.933,-6.611,1.908,-1.557
196.855,-0.044,-0.413,-0.933,-6.031,3.237,-1.603
196.870,-0.034,-0.406,-0.951,-5.84,-0.244,-2.305
196.885,-0.04,-0.404,-0.962,-4.748,-5.45,-2.588
196.901,-0.041,-0.412,-0.941,-3.588,-7.328,-2.519
196.915,-0.045,-0.408,-0.937,-3.229,-6.634,-2.359
196.931,-0.056,-0.407,-0.917,-2.947,-3.221,-2.046
196.946,-0.045,-0.408,-0.923,-3.16,0.298,-1.664
196.961,-0.041,-0.401,-0.947,-3.336,-3.237,-1.656
196.977,-0.055,-0.403,-0.943,-2.664,-4.038,-2.16
196.991,-0.047,-0.404,-0.93,-1.573,-2.55,-1.473
197.006,-0.053,-0.413,-0.935,-1.809,-2.802,-0.809
197.022,-0.051,-0.409,-0.938,-1.176,-0.366,-0.649
197.037,-0.055,-0.406,-0.928,-0.702,2.817,-0.45
197.052,-0.051,-0.412,-0.928,-0.779,4.214,0.489
197.067,-0.054,-0.406,-0.951,-0.282,3.656,0.405
197.082,-0.049,-0.408,-0.947,1.053,2.061,0.191
197.097,-0.05,-0.406,-0.946,1.359,-0.725,1.023
197.113,-0.052,-0.408,-0.933,2.122,1.053,2.153
197.128,-0.058,-0.409,-0.918,2.321,4.748,2.458
197.142,-0.053,-0.41,-0.924,1.084,5.924,2.458
197.158,-0.046,-0.412,-0.935,-0.26,3.504,2.527
197.173,-0.058,-0.401,-0.946,0.336,3.16,2.191
197.189,-0.061,-0.405,-0.937,0.481,2.053,1.573
197.203,-0.05,-0.409,-0.932,-1.069,-1.573,0.885
197.218,-0.063,-0.411,-0.928,-1.534,-1.458,0.649
197.234,-0.06,-0.406,-0.934,-1.008,3.344,1.015
197.249,-0.063,-0.409,-0.934,0.298,7.153,1.122
197.264,-0.054,-0.407,-0.935,-0.061,5.71,0.366
197.279,-0.056,-0.41,-0.931,-1.794,0.275,-0.481
197.294,-0.055,-0.407,-0.944,-1.206,1.504,-0.16
197.309,-0.05,-0.413,-0.936,-1.122,1.328,0.206
197.325,-0.048,-0.415,-0.938,-0.435,1.458,1.038
197.339,-0.061,-0.411,-0.943,0.473,2.45,1.45
197.354,-0.055,-0.409,-0.94,0.939,2.58,1.321
197.370,-0.057,-0.414,-0.936,1.053,2.473,1.618
197.385,-0.059,-0.415,-0.93,0.924,3.305,1.145
197.401,-0.06,-0.409,-0.941,0.771,2.931,1.58
197.415,-0.055,-0.41,-0.937,-0.076,-1.305,0.878
197.430,-0.055,-0.415,-0.933,-0.618,-3.847,0.885
197.446,-0.064,-0.412,-0.939,0.229,-1.771,0.71
197.461,-0.06,-0.415,-0.939,0.71,-1.947,0.832
197.475,-0.067,-0.41,-0.928,0.748,-0.786,0.618
197.491,-0.064,-0.417,-0.927,0.756,1.244,0.748
197.506,-0.061,-0.417,-0.923,0.618,2.763,0.901
197.521,-0.056,-0.415,-0.924,-1.038,0.641,0.649
197.537,-0.064,-0.413,-0.928,-1.0,1.305,0.649
197.551,-0.075,-0.411,-0.933,-0.725,3.321,0.519
197.566,-0.072,-0.411,-0.924,0.305,8.053,0.45
197.582,-0.061,-0.418,-0.929,-1.168,5.137,-0.542
197.597,-0.059,-0.413,-0.935,-2.756,0.176,-1.099
197.611,-0.057,-0.411,-0.926,-2.687,-0.847,-1.145
197.627,-0.06,-0.417,-0.928,-2.473,0.779,-0.595
197.642,-0.057,-0.412,-0.933,-1.969,3.786,0.252
197.658,-0.062,-0.413,-0.934,-1.557,4.489,0.824
